COMMAND 1 SAMPLE 1
Accel X : 1834.00000000000;1845.00000000000;1832.00000000000;1830.00000000000;1819.00000000000;1811.00000000000;1840.00000000000;1845.00000000000;1825.00000000000;1827.00000000000;1830.00000000000;1813.00000000000;1837.00000000000;1827.00000000000;1823.00000000000;1832.00000000000;1822.00000000000;1821.00000000000;1809.00000000000;1790.00000000000;1795.00000000000;1822.00000000000;1828.00000000000;1821.00000000000;1804.00000000000;1807.00000000000;1802.00000000000;1818.00000000000;1833.00000000000;1827.00000000000;1816.00000000000;1839.00000000000;1830.00000000000;1806.00000000000;1844.00000000000;1824.00000000000;1825.00000000000;1774.00000000000;1755.00000000000;1772.00000000000;1799.00000000000;1893.00000000000;1983.00000000000;2037.00000000000;2204.00000000000;2541.00000000000;2808.00000000000;2984.00000000000;3181.00000000000;3177.00000000000;3150.00000000000;3086.00000000000;2843.00000000000;2531.00000000000;2376.00000000000;2197.00000000000;2022.00000000000;1925.00000000000;1783.00000000000;1716.00000000000;1646.00000000000;1441.00000000000;1237.00000000000;1135.00000000000;894.000000000000;517.000000000000;143.000000000000;18.0000000000000;18.0000000000000;20.0000000000000;21.0000000000000;23.0000000000000;30.0000000000000;398.000000000000;533.000000000000;764.000000000000;942.000000000000;1092.00000000000;1385.00000000000;1681.00000000000;1969.00000000000;2160.00000000000;2087.00000000000;2030.00000000000;2120.00000000000;2307.00000000000;2349.00000000000;2479.00000000000;2929.00000000000;3196.00000000000;3062.00000000000;2674.00000000000;3097.00000000000;3560.00000000000;3788.00000000000;3651.00000000000;3679.00000000000;3561.00000000000;3515.00000000000;3702.00000000000;3333.00000000000;2196.00000000000;2440.00000000000;3063.00000000000;3305.00000000000;3058.00000000000;2525.00000000000;2282.00000000000;2258.00000000000;2086.00000000000;1688.00000000000;1488.00000000000;1537.00000000000;1771.00000000000;2030.00000000000;1992.00000000000;1812.00000000000;1780.00000000000;1741.00000000000;1825.00000000000;1939.00000000000;1953.00000000000;1856.00000000000;1821.00000000000;1854.00000000000;1936.00000000000;1911.00000000000;1895.00000000000;1863.00000000000;1897.00000000000;1898.00000000000;1914.00000000000;1919.00000000000;1867.00000000000;1887.00000000000;1870.00000000000;1898.00000000000;1863.00000000000;1828.00000000000;1853.00000000000;1857.00000000000;1881.00000000000;1878.00000000000;1859.00000000000;1834.00000000000;1855.00000000000;1889.00000000000;1887.00000000000;1875.00000000000;1867.00000000000
Accel Y : 2072.00000000000;2047.00000000000;2042.00000000000;2073.00000000000;2063.00000000000;2042.00000000000;2085.00000000000;2074.00000000000;2045.00000000000;2057.00000000000;2065.00000000000;2056.00000000000;2068.00000000000;2055.00000000000;2052.00000000000;2063.00000000000;2052.00000000000;2079.00000000000;2061.00000000000;2061.00000000000;2043.00000000000;2069.00000000000;2050.00000000000;2074.00000000000;2071.00000000000;2064.00000000000;2068.00000000000;2053.00000000000;2069.00000000000;2067.00000000000;2076.00000000000;2071.00000000000;2065.00000000000;2067.00000000000;2091.00000000000;2084.00000000000;2081.00000000000;2093.00000000000;2118.00000000000;2106.00000000000;2134.00000000000;2135.00000000000;2141.00000000000;2173.00000000000;2208.00000000000;2178.00000000000;2131.00000000000;2104.00000000000;2092.00000000000;2067.00000000000;2071.00000000000;2081.00000000000;2035.00000000000;2011.00000000000;2001.00000000000;1987.00000000000;1961.00000000000;1947.00000000000;1894.00000000000;1907.00000000000;1943.00000000000;1920.00000000000;1909.00000000000;1959.00000000000;2022.00000000000;2023.00000000000;2067.00000000000;2184.00000000000;2278.00000000000;2370.00000000000;2220.00000000000;2114.00000000000;2110.00000000000;2016.00000000000;2026.00000000000;2046.00000000000;1982.00000000000;1962.00000000000;1949.00000000000;1995.00000000000;2099.00000000000;2127.00000000000;2102.00000000000;2071.00000000000;2197.00000000000;2357.00000000000;2383.00000000000;2411.00000000000;2478.00000000000;2345.00000000000;2222.00000000000;1882.00000000000;1898.00000000000;1963.00000000000;1837.00000000000;1894.00000000000;1903.00000000000;1911.00000000000;1945.00000000000;1940.00000000000;1937.00000000000;1956.00000000000;2145.00000000000;2054.00000000000;1995.00000000000;1979.00000000000;1949.00000000000;1981.00000000000;2029.00000000000;2053.00000000000;2056.00000000000;2050.00000000000;2103.00000000000;2088.00000000000;2095.00000000000;2043.00000000000;2039.00000000000;2087.00000000000;2071.00000000000;2104.00000000000;2107.00000000000;2066.00000000000;2099.00000000000;2095.00000000000;2101.00000000000;2095.00000000000;2094.00000000000;2084.00000000000;2055.00000000000;2094.00000000000;2100.00000000000;2068.00000000000;2092.00000000000;2064.00000000000;2064.00000000000;2074.00000000000;2084.00000000000;2059.00000000000;2042.00000000000;2044.00000000000;2059.00000000000;2065.00000000000;2058.00000000000;2052.00000000000;2046.00000000000;2051.00000000000;2064.00000000000;2071.00000000000;2048.00000000000;2076.00000000000
Accel Z : 2653.00000000000;2679.00000000000;2675.00000000000;2672.00000000000;2676.00000000000;2662.00000000000;2671.00000000000;2655.00000000000;2663.00000000000;2658.00000000000;2658.00000000000;2657.00000000000;2656.00000000000;2658.00000000000;2657.00000000000;2679.00000000000;2653.00000000000;2654.00000000000;2668.00000000000;2654.00000000000;2682.00000000000;2658.00000000000;2655.00000000000;2654.00000000000;2666.00000000000;2645.00000000000;2668.00000000000;2683.00000000000;2669.00000000000;2661.00000000000;2665.00000000000;2680.00000000000;2676.00000000000;2673.00000000000;2662.00000000000;2717.00000000000;2726.00000000000;2760.00000000000;2811.00000000000;2856.00000000000;2961.00000000000;3004.00000000000;3133.00000000000;3133.00000000000;3065.00000000000;2991.00000000000;2906.00000000000;2725.00000000000;2619.00000000000;2410.00000000000;2269.00000000000;2154.00000000000;2121.00000000000;1956.00000000000;1881.00000000000;1844.00000000000;1733.00000000000;1682.00000000000;1637.00000000000;1598.00000000000;1634.00000000000;1548.00000000000;1442.00000000000;1474.00000000000;1538.00000000000;1663.00000000000;1871.00000000000;2237.00000000000;2481.00000000000;2296.00000000000;2019.00000000000;2073.00000000000;2026.00000000000;2116.00000000000;2040.00000000000;1910.00000000000;1702.00000000000;1548.00000000000;1613.00000000000;1738.00000000000;1763.00000000000;1661.00000000000;1444.00000000000;1378.00000000000;1524.00000000000;1675.00000000000;1633.00000000000;1564.00000000000;1658.00000000000;1743.00000000000;1642.00000000000;1438.00000000000;1701.00000000000;1816.00000000000;1842.00000000000;1814.00000000000;1841.00000000000;1779.00000000000;1809.00000000000;1951.00000000000;2140.00000000000;2198.00000000000;2210.00000000000;2198.00000000000;2251.00000000000;2234.00000000000;2255.00000000000;2283.00000000000;2328.00000000000;2458.00000000000;2540.00000000000;2574.00000000000;2685.00000000000;2753.00000000000;2727.00000000000;2767.00000000000;2755.00000000000;2722.00000000000;2755.00000000000;2742.00000000000;2770.00000000000;2757.00000000000;2718.00000000000;2697.00000000000;2703.00000000000;2723.00000000000;2692.00000000000;2655.00000000000;2658.00000000000;2649.00000000000;2649.00000000000;2649.00000000000;2661.00000000000;2647.00000000000;2641.00000000000;2662.00000000000;2658.00000000000;2669.00000000000;2649.00000000000;2655.00000000000;2671.00000000000;2673.00000000000;2665.00000000000;2644.00000000000;2646.00000000000;2666.00000000000;2657.00000000000;2686.00000000000;2698.00000000000;2698.00000000000
Gyro X : 1834.00000000000;1845.00000000000;1832.00000000000;1830.00000000000;1819.00000000000;1811.00000000000;1840.00000000000;1845.00000000000;1825.00000000000;1827.00000000000;1830.00000000000;1813.00000000000;1837.00000000000;1827.00000000000;1823.00000000000;1832.00000000000;1822.00000000000;1821.00000000000;1809.00000000000;1790.00000000000;1795.00000000000;1822.00000000000;1828.00000000000;1821.00000000000;1804.00000000000;1807.00000000000;1802.00000000000;1818.00000000000;1833.00000000000;1827.00000000000;1816.00000000000;1839.00000000000;1830.00000000000;1806.00000000000;1844.00000000000;1824.00000000000;1825.00000000000;1774.00000000000;1755.00000000000;1772.00000000000;1799.00000000000;1893.00000000000;1983.00000000000;2037.00000000000;2204.00000000000;2541.00000000000;2808.00000000000;2984.00000000000;3181.00000000000;3177.00000000000;3150.00000000000;3086.00000000000;2843.00000000000;2531.00000000000;2376.00000000000;2197.00000000000;2022.00000000000;1925.00000000000;1783.00000000000;1716.00000000000;1646.00000000000;1441.00000000000;1237.00000000000;1135.00000000000;894.000000000000;517.000000000000;143.000000000000;18.0000000000000;18.0000000000000;20.0000000000000;21.0000000000000;23.0000000000000;30.0000000000000;398.000000000000;533.000000000000;764.000000000000;942.000000000000;1092.00000000000;1385.00000000000;1681.00000000000;1969.00000000000;2160.00000000000;2087.00000000000;2030.00000000000;2120.00000000000;2307.00000000000;2349.00000000000;2479.00000000000;2929.00000000000;3196.00000000000;3062.00000000000;2674.00000000000;3097.00000000000;3560.00000000000;3788.00000000000;3651.00000000000;3679.00000000000;3561.00000000000;3515.00000000000;3702.00000000000;3333.00000000000;2196.00000000000;2440.00000000000;3063.00000000000;3305.00000000000;3058.00000000000;2525.00000000000;2282.00000000000;2258.00000000000;2086.00000000000;1688.00000000000;1488.00000000000;1537.00000000000;1771.00000000000;2030.00000000000;1992.00000000000;1812.00000000000;1780.00000000000;1741.00000000000;1825.00000000000;1939.00000000000;1953.00000000000;1856.00000000000;1821.00000000000;1854.00000000000;1936.00000000000;1911.00000000000;1895.00000000000;1863.00000000000;1897.00000000000;1898.00000000000;1914.00000000000;1919.00000000000;1867.00000000000;1887.00000000000;1870.00000000000;1898.00000000000;1863.00000000000;1828.00000000000;1853.00000000000;1857.00000000000;1881.00000000000;1878.00000000000;1859.00000000000;1834.00000000000;1855.00000000000;1889.00000000000;1887.00000000000;1875.00000000000;1867.00000000000
Gyro Y : 2072.00000000000;2047.00000000000;2042.00000000000;2073.00000000000;2063.00000000000;2042.00000000000;2085.00000000000;2074.00000000000;2045.00000000000;2057.00000000000;2065.00000000000;2056.00000000000;2068.00000000000;2055.00000000000;2052.00000000000;2063.00000000000;2052.00000000000;2079.00000000000;2061.00000000000;2061.00000000000;2043.00000000000;2069.00000000000;2050.00000000000;2074.00000000000;2071.00000000000;2064.00000000000;2068.00000000000;2053.00000000000;2069.00000000000;2067.00000000000;2076.00000000000;2071.00000000000;2065.00000000000;2067.00000000000;2091.00000000000;2084.00000000000;2081.00000000000;2093.00000000000;2118.00000000000;2106.00000000000;2134.00000000000;2135.00000000000;2141.00000000000;2173.00000000000;2208.00000000000;2178.00000000000;2131.00000000000;2104.00000000000;2092.00000000000;2067.00000000000;2071.00000000000;2081.00000000000;2035.00000000000;2011.00000000000;2001.00000000000;1987.00000000000;1961.00000000000;1947.00000000000;1894.00000000000;1907.00000000000;1943.00000000000;1920.00000000000;1909.00000000000;1959.00000000000;2022.00000000000;2023.00000000000;2067.00000000000;2184.00000000000;2278.00000000000;2370.00000000000;2220.00000000000;2114.00000000000;2110.00000000000;2016.00000000000;2026.00000000000;2046.00000000000;1982.00000000000;1962.00000000000;1949.00000000000;1995.00000000000;2099.00000000000;2127.00000000000;2102.00000000000;2071.00000000000;2197.00000000000;2357.00000000000;2383.00000000000;2411.00000000000;2478.00000000000;2345.00000000000;2222.00000000000;1882.00000000000;1898.00000000000;1963.00000000000;1837.00000000000;1894.00000000000;1903.00000000000;1911.00000000000;1945.00000000000;1940.00000000000;1937.00000000000;1956.00000000000;2145.00000000000;2054.00000000000;1995.00000000000;1979.00000000000;1949.00000000000;1981.00000000000;2029.00000000000;2053.00000000000;2056.00000000000;2050.00000000000;2103.00000000000;2088.00000000000;2095.00000000000;2043.00000000000;2039.00000000000;2087.00000000000;2071.00000000000;2104.00000000000;2107.00000000000;2066.00000000000;2099.00000000000;2095.00000000000;2101.00000000000;2095.00000000000;2094.00000000000;2084.00000000000;2055.00000000000;2094.00000000000;2100.00000000000;2068.00000000000;2092.00000000000;2064.00000000000;2064.00000000000;2074.00000000000;2084.00000000000;2059.00000000000;2042.00000000000;2044.00000000000;2059.00000000000;2065.00000000000;2058.00000000000;2052.00000000000;2046.00000000000;2051.00000000000;2064.00000000000;2071.00000000000;2048.00000000000;2076.00000000000
Gyro Z : 2653.00000000000;2679.00000000000;2675.00000000000;2672.00000000000;2676.00000000000;2662.00000000000;2671.00000000000;2655.00000000000;2663.00000000000;2658.00000000000;2658.00000000000;2657.00000000000;2656.00000000000;2658.00000000000;2657.00000000000;2679.00000000000;2653.00000000000;2654.00000000000;2668.00000000000;2654.00000000000;2682.00000000000;2658.00000000000;2655.00000000000;2654.00000000000;2666.00000000000;2645.00000000000;2668.00000000000;2683.00000000000;2669.00000000000;2661.00000000000;2665.00000000000;2680.00000000000;2676.00000000000;2673.00000000000;2662.00000000000;2717.00000000000;2726.00000000000;2760.00000000000;2811.00000000000;2856.00000000000;2961.00000000000;3004.00000000000;3133.00000000000;3133.00000000000;3065.00000000000;2991.00000000000;2906.00000000000;2725.00000000000;2619.00000000000;2410.00000000000;2269.00000000000;2154.00000000000;2121.00000000000;1956.00000000000;1881.00000000000;1844.00000000000;1733.00000000000;1682.00000000000;1637.00000000000;1598.00000000000;1634.00000000000;1548.00000000000;1442.00000000000;1474.00000000000;1538.00000000000;1663.00000000000;1871.00000000000;2237.00000000000;2481.00000000000;2296.00000000000;2019.00000000000;2073.00000000000;2026.00000000000;2116.00000000000;2040.00000000000;1910.00000000000;1702.00000000000;1548.00000000000;1613.00000000000;1738.00000000000;1763.00000000000;1661.00000000000;1444.00000000000;1378.00000000000;1524.00000000000;1675.00000000000;1633.00000000000;1564.00000000000;1658.00000000000;1743.00000000000;1642.00000000000;1438.00000000000;1701.00000000000;1816.00000000000;1842.00000000000;1814.00000000000;1841.00000000000;1779.00000000000;1809.00000000000;1951.00000000000;2140.00000000000;2198.00000000000;2210.00000000000;2198.00000000000;2251.00000000000;2234.00000000000;2255.00000000000;2283.00000000000;2328.00000000000;2458.00000000000;2540.00000000000;2574.00000000000;2685.00000000000;2753.00000000000;2727.00000000000;2767.00000000000;2755.00000000000;2722.00000000000;2755.00000000000;2742.00000000000;2770.00000000000;2757.00000000000;2718.00000000000;2697.00000000000;2703.00000000000;2723.00000000000;2692.00000000000;2655.00000000000;2658.00000000000;2649.00000000000;2649.00000000000;2649.00000000000;2661.00000000000;2647.00000000000;2641.00000000000;2662.00000000000;2658.00000000000;2669.00000000000;2649.00000000000;2655.00000000000;2671.00000000000;2673.00000000000;2665.00000000000;2644.00000000000;2646.00000000000;2666.00000000000;2657.00000000000;2686.00000000000;2698.00000000000;2698.00000000000
