COMMAND 4 SAMPLE 1
Accel X : 1892.00000000000;1881.00000000000;1852.00000000000;1893.00000000000;1882.00000000000;1906.00000000000;1914.00000000000;1919.00000000000;1904.00000000000;1906.00000000000;1898.00000000000;1926.00000000000;1911.00000000000;1927.00000000000;1869.00000000000;1888.00000000000;1885.00000000000;1919.00000000000;1948.00000000000;1923.00000000000;1862.00000000000;1855.00000000000;1875.00000000000;1900.00000000000;1913.00000000000;1878.00000000000;1869.00000000000;1892.00000000000;1927.00000000000;1885.00000000000;1883.00000000000;1874.00000000000;1899.00000000000;1895.00000000000;1925.00000000000;1853.00000000000;1854.00000000000;1842.00000000000;1820.00000000000;1877.00000000000;1861.00000000000;1890.00000000000;1831.00000000000;1812.00000000000;1819.00000000000;1930.00000000000;1929.00000000000;1848.00000000000;1726.00000000000;1662.00000000000;1771.00000000000;1828.00000000000;1690.00000000000;1572.00000000000;1603.00000000000;1675.00000000000;1621.00000000000;1701.00000000000;1701.00000000000;1669.00000000000;1742.00000000000;1878.00000000000;1998.00000000000;1911.00000000000;1778.00000000000;1769.00000000000;1926.00000000000;1962.00000000000;1965.00000000000;1815.00000000000;1798.00000000000;1851.00000000000;1916.00000000000;1875.00000000000;1792.00000000000;1735.00000000000;1776.00000000000;1828.00000000000;1822.00000000000;1781.00000000000;1741.00000000000;1744.00000000000;1749.00000000000;1816.00000000000;1807.00000000000;1742.00000000000;1723.00000000000;1674.00000000000;1723.00000000000;1803.00000000000;1811.00000000000;1807.00000000000;1747.00000000000;1769.00000000000;1850.00000000000;1970.00000000000;1983.00000000000;1895.00000000000;1846.00000000000;1844.00000000000;1920.00000000000;1909.00000000000;1971.00000000000;1939.00000000000;1925.00000000000;1940.00000000000;1930.00000000000;1916.00000000000;1987.00000000000;2007.00000000000;1985.00000000000;1931.00000000000;1934.00000000000;1975.00000000000;1983.00000000000;1944.00000000000;1910.00000000000;1924.00000000000;1945.00000000000;1917.00000000000;1927.00000000000;1918.00000000000;1919.00000000000;1876.00000000000;1866.00000000000;1937.00000000000;1939.00000000000;1914.00000000000;1923.00000000000;1890.00000000000;1896.00000000000;1952.00000000000;1959.00000000000;1910.00000000000;1865.00000000000;1885.00000000000;1900.00000000000;1931.00000000000;1956.00000000000;1925.00000000000;1883.00000000000;1899.00000000000;1894.00000000000;1938.00000000000;1931.00000000000;1893.00000000000;1871.00000000000;1892.00000000000;1919.00000000000;1944.00000000000
Accel Y : 1937.00000000000;1934.00000000000;1911.00000000000;1905.00000000000;1893.00000000000;1919.00000000000;1907.00000000000;1923.00000000000;1919.00000000000;1918.00000000000;1917.00000000000;1917.00000000000;1915.00000000000;1922.00000000000;1896.00000000000;1913.00000000000;1933.00000000000;1933.00000000000;1922.00000000000;1926.00000000000;1911.00000000000;1923.00000000000;1937.00000000000;1928.00000000000;1920.00000000000;1951.00000000000;1939.00000000000;1933.00000000000;1953.00000000000;1923.00000000000;1935.00000000000;1922.00000000000;1930.00000000000;1945.00000000000;1959.00000000000;1928.00000000000;1890.00000000000;1993.00000000000;2025.00000000000;1990.00000000000;2058.00000000000;2143.00000000000;2211.00000000000;2269.00000000000;2370.00000000000;2537.00000000000;2663.00000000000;2727.00000000000;2840.00000000000;3031.00000000000;3172.00000000000;3240.00000000000;3349.00000000000;3397.00000000000;3433.00000000000;3482.00000000000;3461.00000000000;3433.00000000000;3388.00000000000;3366.00000000000;3266.00000000000;3118.00000000000;3128.00000000000;3158.00000000000;3103.00000000000;3029.00000000000;3005.00000000000;2988.00000000000;2999.00000000000;2999.00000000000;3007.00000000000;3022.00000000000;3031.00000000000;3015.00000000000;3047.00000000000;3079.00000000000;3123.00000000000;3095.00000000000;3092.00000000000;3206.00000000000;3185.00000000000;3165.00000000000;3183.00000000000;3152.00000000000;3140.00000000000;3131.00000000000;3115.00000000000;3093.00000000000;3015.00000000000;2950.00000000000;2921.00000000000;2869.00000000000;2777.00000000000;2715.00000000000;2644.00000000000;2538.00000000000;2489.00000000000;2407.00000000000;2291.00000000000;2216.00000000000;2117.00000000000;2037.00000000000;1961.00000000000;1939.00000000000;1890.00000000000;1835.00000000000;1831.00000000000;1790.00000000000;1807.00000000000;1802.00000000000;1787.00000000000;1791.00000000000;1805.00000000000;1809.00000000000;1827.00000000000;1839.00000000000;1842.00000000000;1847.00000000000;1858.00000000000;1871.00000000000;1846.00000000000;1862.00000000000;1856.00000000000;1867.00000000000;1845.00000000000;1872.00000000000;1887.00000000000;1880.00000000000;1878.00000000000;1876.00000000000;1871.00000000000;1859.00000000000;1883.00000000000;1869.00000000000;1872.00000000000;1864.00000000000;1863.00000000000;1873.00000000000;1847.00000000000;1847.00000000000;1867.00000000000;1881.00000000000;1861.00000000000;1888.00000000000;1867.00000000000;1874.00000000000;1873.00000000000;1873.00000000000;1872.00000000000;1879.00000000000
Accel Z : 2664.00000000000;2665.00000000000;2657.00000000000;2672.00000000000;2687.00000000000;2690.00000000000;2684.00000000000;2665.00000000000;2664.00000000000;2650.00000000000;2643.00000000000;2659.00000000000;2661.00000000000;2638.00000000000;2637.00000000000;2630.00000000000;2635.00000000000;2643.00000000000;2642.00000000000;2637.00000000000;2628.00000000000;2622.00000000000;2641.00000000000;2656.00000000000;2636.00000000000;2630.00000000000;2599.00000000000;2613.00000000000;2623.00000000000;2598.00000000000;2566.00000000000;2518.00000000000;2464.00000000000;2443.00000000000;2376.00000000000;2294.00000000000;2221.00000000000;2166.00000000000;2097.00000000000;2039.00000000000;2056.00000000000;2010.00000000000;1947.00000000000;1944.00000000000;1907.00000000000;2022.00000000000;1994.00000000000;2080.00000000000;2139.00000000000;2162.00000000000;2363.00000000000;2510.00000000000;2658.00000000000;2730.00000000000;2765.00000000000;2874.00000000000;2927.00000000000;3059.00000000000;2951.00000000000;2776.00000000000;2683.00000000000;2758.00000000000;2734.00000000000;2587.00000000000;2472.00000000000;2357.00000000000;2421.00000000000;2435.00000000000;2418.00000000000;2327.00000000000;2278.00000000000;2314.00000000000;2357.00000000000;2377.00000000000;2413.00000000000;2381.00000000000;2407.00000000000;2466.00000000000;2534.00000000000;2567.00000000000;2547.00000000000;2585.00000000000;2563.00000000000;2607.00000000000;2651.00000000000;2616.00000000000;2596.00000000000;2567.00000000000;2600.00000000000;2597.00000000000;2561.00000000000;2483.00000000000;2431.00000000000;2390.00000000000;2363.00000000000;2352.00000000000;2271.00000000000;2238.00000000000;2191.00000000000;2115.00000000000;2132.00000000000;2107.00000000000;2146.00000000000;2110.00000000000;2126.00000000000;2118.00000000000;2117.00000000000;2184.00000000000;2284.00000000000;2319.00000000000;2386.00000000000;2379.00000000000;2465.00000000000;2529.00000000000;2583.00000000000;2603.00000000000;2611.00000000000;2631.00000000000;2666.00000000000;2662.00000000000;2678.00000000000;2697.00000000000;2674.00000000000;2693.00000000000;2677.00000000000;2708.00000000000;2693.00000000000;2689.00000000000;2653.00000000000;2625.00000000000;2629.00000000000;2667.00000000000;2655.00000000000;2637.00000000000;2617.00000000000;2614.00000000000;2608.00000000000;2633.00000000000;2638.00000000000;2641.00000000000;2622.00000000000;2606.00000000000;2610.00000000000;2622.00000000000;2645.00000000000;2643.00000000000;2627.00000000000;2631.00000000000;2638.00000000000;2652.00000000000
Gyro X : 1892.00000000000;1881.00000000000;1852.00000000000;1893.00000000000;1882.00000000000;1906.00000000000;1914.00000000000;1919.00000000000;1904.00000000000;1906.00000000000;1898.00000000000;1926.00000000000;1911.00000000000;1927.00000000000;1869.00000000000;1888.00000000000;1885.00000000000;1919.00000000000;1948.00000000000;1923.00000000000;1862.00000000000;1855.00000000000;1875.00000000000;1900.00000000000;1913.00000000000;1878.00000000000;1869.00000000000;1892.00000000000;1927.00000000000;1885.00000000000;1883.00000000000;1874.00000000000;1899.00000000000;1895.00000000000;1925.00000000000;1853.00000000000;1854.00000000000;1842.00000000000;1820.00000000000;1877.00000000000;1861.00000000000;1890.00000000000;1831.00000000000;1812.00000000000;1819.00000000000;1930.00000000000;1929.00000000000;1848.00000000000;1726.00000000000;1662.00000000000;1771.00000000000;1828.00000000000;1690.00000000000;1572.00000000000;1603.00000000000;1675.00000000000;1621.00000000000;1701.00000000000;1701.00000000000;1669.00000000000;1742.00000000000;1878.00000000000;1998.00000000000;1911.00000000000;1778.00000000000;1769.00000000000;1926.00000000000;1962.00000000000;1965.00000000000;1815.00000000000;1798.00000000000;1851.00000000000;1916.00000000000;1875.00000000000;1792.00000000000;1735.00000000000;1776.00000000000;1828.00000000000;1822.00000000000;1781.00000000000;1741.00000000000;1744.00000000000;1749.00000000000;1816.00000000000;1807.00000000000;1742.00000000000;1723.00000000000;1674.00000000000;1723.00000000000;1803.00000000000;1811.00000000000;1807.00000000000;1747.00000000000;1769.00000000000;1850.00000000000;1970.00000000000;1983.00000000000;1895.00000000000;1846.00000000000;1844.00000000000;1920.00000000000;1909.00000000000;1971.00000000000;1939.00000000000;1925.00000000000;1940.00000000000;1930.00000000000;1916.00000000000;1987.00000000000;2007.00000000000;1985.00000000000;1931.00000000000;1934.00000000000;1975.00000000000;1983.00000000000;1944.00000000000;1910.00000000000;1924.00000000000;1945.00000000000;1917.00000000000;1927.00000000000;1918.00000000000;1919.00000000000;1876.00000000000;1866.00000000000;1937.00000000000;1939.00000000000;1914.00000000000;1923.00000000000;1890.00000000000;1896.00000000000;1952.00000000000;1959.00000000000;1910.00000000000;1865.00000000000;1885.00000000000;1900.00000000000;1931.00000000000;1956.00000000000;1925.00000000000;1883.00000000000;1899.00000000000;1894.00000000000;1938.00000000000;1931.00000000000;1893.00000000000;1871.00000000000;1892.00000000000;1919.00000000000;1944.00000000000
Gyro Y : 1937.00000000000;1934.00000000000;1911.00000000000;1905.00000000000;1893.00000000000;1919.00000000000;1907.00000000000;1923.00000000000;1919.00000000000;1918.00000000000;1917.00000000000;1917.00000000000;1915.00000000000;1922.00000000000;1896.00000000000;1913.00000000000;1933.00000000000;1933.00000000000;1922.00000000000;1926.00000000000;1911.00000000000;1923.00000000000;1937.00000000000;1928.00000000000;1920.00000000000;1951.00000000000;1939.00000000000;1933.00000000000;1953.00000000000;1923.00000000000;1935.00000000000;1922.00000000000;1930.00000000000;1945.00000000000;1959.00000000000;1928.00000000000;1890.00000000000;1993.00000000000;2025.00000000000;1990.00000000000;2058.00000000000;2143.00000000000;2211.00000000000;2269.00000000000;2370.00000000000;2537.00000000000;2663.00000000000;2727.00000000000;2840.00000000000;3031.00000000000;3172.00000000000;3240.00000000000;3349.00000000000;3397.00000000000;3433.00000000000;3482.00000000000;3461.00000000000;3433.00000000000;3388.00000000000;3366.00000000000;3266.00000000000;3118.00000000000;3128.00000000000;3158.00000000000;3103.00000000000;3029.00000000000;3005.00000000000;2988.00000000000;2999.00000000000;2999.00000000000;3007.00000000000;3022.00000000000;3031.00000000000;3015.00000000000;3047.00000000000;3079.00000000000;3123.00000000000;3095.00000000000;3092.00000000000;3206.00000000000;3185.00000000000;3165.00000000000;3183.00000000000;3152.00000000000;3140.00000000000;3131.00000000000;3115.00000000000;3093.00000000000;3015.00000000000;2950.00000000000;2921.00000000000;2869.00000000000;2777.00000000000;2715.00000000000;2644.00000000000;2538.00000000000;2489.00000000000;2407.00000000000;2291.00000000000;2216.00000000000;2117.00000000000;2037.00000000000;1961.00000000000;1939.00000000000;1890.00000000000;1835.00000000000;1831.00000000000;1790.00000000000;1807.00000000000;1802.00000000000;1787.00000000000;1791.00000000000;1805.00000000000;1809.00000000000;1827.00000000000;1839.00000000000;1842.00000000000;1847.00000000000;1858.00000000000;1871.00000000000;1846.00000000000;1862.00000000000;1856.00000000000;1867.00000000000;1845.00000000000;1872.00000000000;1887.00000000000;1880.00000000000;1878.00000000000;1876.00000000000;1871.00000000000;1859.00000000000;1883.00000000000;1869.00000000000;1872.00000000000;1864.00000000000;1863.00000000000;1873.00000000000;1847.00000000000;1847.00000000000;1867.00000000000;1881.00000000000;1861.00000000000;1888.00000000000;1867.00000000000;1874.00000000000;1873.00000000000;1873.00000000000;1872.00000000000;1879.00000000000
Gyro Z : 2664.00000000000;2665.00000000000;2657.00000000000;2672.00000000000;2687.00000000000;2690.00000000000;2684.00000000000;2665.00000000000;2664.00000000000;2650.00000000000;2643.00000000000;2659.00000000000;2661.00000000000;2638.00000000000;2637.00000000000;2630.00000000000;2635.00000000000;2643.00000000000;2642.00000000000;2637.00000000000;2628.00000000000;2622.00000000000;2641.00000000000;2656.00000000000;2636.00000000000;2630.00000000000;2599.00000000000;2613.00000000000;2623.00000000000;2598.00000000000;2566.00000000000;2518.00000000000;2464.00000000000;2443.00000000000;2376.00000000000;2294.00000000000;2221.00000000000;2166.00000000000;2097.00000000000;2039.00000000000;2056.00000000000;2010.00000000000;1947.00000000000;1944.00000000000;1907.00000000000;2022.00000000000;1994.00000000000;2080.00000000000;2139.00000000000;2162.00000000000;2363.00000000000;2510.00000000000;2658.00000000000;2730.00000000000;2765.00000000000;2874.00000000000;2927.00000000000;3059.00000000000;2951.00000000000;2776.00000000000;2683.00000000000;2758.00000000000;2734.00000000000;2587.00000000000;2472.00000000000;2357.00000000000;2421.00000000000;2435.00000000000;2418.00000000000;2327.00000000000;2278.00000000000;2314.00000000000;2357.00000000000;2377.00000000000;2413.00000000000;2381.00000000000;2407.00000000000;2466.00000000000;2534.00000000000;2567.00000000000;2547.00000000000;2585.00000000000;2563.00000000000;2607.00000000000;2651.00000000000;2616.00000000000;2596.00000000000;2567.00000000000;2600.00000000000;2597.00000000000;2561.00000000000;2483.00000000000;2431.00000000000;2390.00000000000;2363.00000000000;2352.00000000000;2271.00000000000;2238.00000000000;2191.00000000000;2115.00000000000;2132.00000000000;2107.00000000000;2146.00000000000;2110.00000000000;2126.00000000000;2118.00000000000;2117.00000000000;2184.00000000000;2284.00000000000;2319.00000000000;2386.00000000000;2379.00000000000;2465.00000000000;2529.00000000000;2583.00000000000;2603.00000000000;2611.00000000000;2631.00000000000;2666.00000000000;2662.00000000000;2678.00000000000;2697.00000000000;2674.00000000000;2693.00000000000;2677.00000000000;2708.00000000000;2693.00000000000;2689.00000000000;2653.00000000000;2625.00000000000;2629.00000000000;2667.00000000000;2655.00000000000;2637.00000000000;2617.00000000000;2614.00000000000;2608.00000000000;2633.00000000000;2638.00000000000;2641.00000000000;2622.00000000000;2606.00000000000;2610.00000000000;2622.00000000000;2645.00000000000;2643.00000000000;2627.00000000000;2631.00000000000;2638.00000000000;2652.00000000000
