COMMAND 2 SAMPLE 1
Accel X : 1788.00000000000;1790.00000000000;1791.00000000000;1784.00000000000;1783.00000000000;1800.00000000000;1799.00000000000;1798.00000000000;1795.00000000000;1777.00000000000;1766.00000000000;1771.00000000000;1767.00000000000;1785.00000000000;1761.00000000000;1730.00000000000;1715.00000000000;1755.00000000000;1802.00000000000;1735.00000000000;1806.00000000000;1926.00000000000;1993.00000000000;2080.00000000000;2192.00000000000;2208.00000000000;2338.00000000000;2454.00000000000;2502.00000000000;2490.00000000000;2748.00000000000;2835.00000000000;2825.00000000000;2936.00000000000;3143.00000000000;3362.00000000000;3306.00000000000;3189.00000000000;3213.00000000000;3247.00000000000;3291.00000000000;3320.00000000000;3313.00000000000;3305.00000000000;3271.00000000000;3203.00000000000;3024.00000000000;2902.00000000000;2860.00000000000;2793.00000000000;2694.00000000000;2496.00000000000;2455.00000000000;2604.00000000000;2607.00000000000;2485.00000000000;2246.00000000000;2137.00000000000;2199.00000000000;2246.00000000000;2254.00000000000;2301.00000000000;2288.00000000000;2316.00000000000;2472.00000000000;2568.00000000000;2612.00000000000;2587.00000000000;2623.00000000000;2667.00000000000;2728.00000000000;2771.00000000000;2697.00000000000;2725.00000000000;2743.00000000000;2731.00000000000;2780.00000000000;2695.00000000000;2703.00000000000;2705.00000000000;2658.00000000000;2675.00000000000;2804.00000000000;2869.00000000000;2755.00000000000;2750.00000000000;2826.00000000000;2816.00000000000;2813.00000000000;2794.00000000000;2774.00000000000;2745.00000000000;2738.00000000000;2851.00000000000;2907.00000000000;2827.00000000000;2897.00000000000;3020.00000000000;3043.00000000000;2691.00000000000;2378.00000000000;2555.00000000000;2602.00000000000;2054.00000000000;1337.00000000000;1907.00000000000;2342.00000000000;2446.00000000000;2165.00000000000;1641.00000000000;1378.00000000000;1685.00000000000;1993.00000000000;2188.00000000000;2187.00000000000;1985.00000000000;1931.00000000000;1989.00000000000;2166.00000000000;2180.00000000000;2118.00000000000;2085.00000000000;2084.00000000000;2131.00000000000;2089.00000000000;1942.00000000000;1816.00000000000;1861.00000000000;1902.00000000000;1882.00000000000;1839.00000000000;1725.00000000000;1747.00000000000;1758.00000000000;1804.00000000000;1770.00000000000;1675.00000000000;1689.00000000000;1673.00000000000;1691.00000000000;1770.00000000000;1730.00000000000;1711.00000000000;1693.00000000000;1712.00000000000;1752.00000000000;1728.00000000000;1728.00000000000;1723.00000000000;1723.00000000000
Accel Y : 2022.00000000000;2007.00000000000;2002.00000000000;2025.00000000000;2035.00000000000;2032.00000000000;1998.00000000000;2034.00000000000;2036.00000000000;2007.00000000000;2015.00000000000;2039.00000000000;2039.00000000000;2034.00000000000;2031.00000000000;2030.00000000000;2013.00000000000;2031.00000000000;2029.00000000000;2022.00000000000;2024.00000000000;2013.00000000000;2015.00000000000;2013.00000000000;2026.00000000000;2031.00000000000;2043.00000000000;2064.00000000000;2067.00000000000;2052.00000000000;2077.00000000000;2071.00000000000;2029.00000000000;2084.00000000000;2102.00000000000;2103.00000000000;2082.00000000000;2194.00000000000;2223.00000000000;2264.00000000000;2318.00000000000;2345.00000000000;2403.00000000000;2498.00000000000;2522.00000000000;2577.00000000000;2655.00000000000;2700.00000000000;2735.00000000000;2679.00000000000;2645.00000000000;2636.00000000000;2593.00000000000;2573.00000000000;2503.00000000000;2491.00000000000;2408.00000000000;2341.00000000000;2205.00000000000;2163.00000000000;2119.00000000000;2003.00000000000;1956.00000000000;1963.00000000000;1968.00000000000;1927.00000000000;1962.00000000000;1976.00000000000;1979.00000000000;2003.00000000000;2045.00000000000;2029.00000000000;2093.00000000000;2137.00000000000;2169.00000000000;2211.00000000000;2192.00000000000;2221.00000000000;2232.00000000000;2250.00000000000;2305.00000000000;2381.00000000000;2384.00000000000;2320.00000000000;2354.00000000000;2391.00000000000;2344.00000000000;2348.00000000000;2391.00000000000;2408.00000000000;2393.00000000000;2364.00000000000;2393.00000000000;2336.00000000000;2268.00000000000;2248.00000000000;2257.00000000000;2255.00000000000;2325.00000000000;2198.00000000000;2144.00000000000;2225.00000000000;2282.00000000000;2142.00000000000;1983.00000000000;2204.00000000000;2247.00000000000;2159.00000000000;2063.00000000000;2096.00000000000;2114.00000000000;2131.00000000000;2147.00000000000;2095.00000000000;2027.00000000000;2021.00000000000;2035.00000000000;2040.00000000000;2086.00000000000;2023.00000000000;1996.00000000000;2009.00000000000;2002.00000000000;2036.00000000000;2003.00000000000;1983.00000000000;1983.00000000000;2033.00000000000;2031.00000000000;2015.00000000000;1997.00000000000;2022.00000000000;2016.00000000000;2013.00000000000;2020.00000000000;2020.00000000000;1995.00000000000;2043.00000000000;2017.00000000000;2033.00000000000;2035.00000000000;2006.00000000000;2010.00000000000;2006.00000000000;2025.00000000000;2045.00000000000;2011.00000000000;2033.00000000000;2016.00000000000;2038.00000000000
Accel Z : 2664.00000000000;2658.00000000000;2664.00000000000;2659.00000000000;2679.00000000000;2667.00000000000;2659.00000000000;2646.00000000000;2672.00000000000;2657.00000000000;2677.00000000000;2654.00000000000;2639.00000000000;2629.00000000000;2643.00000000000;2616.00000000000;2609.00000000000;2644.00000000000;2629.00000000000;2621.00000000000;2585.00000000000;2573.00000000000;2589.00000000000;2561.00000000000;2532.00000000000;2541.00000000000;2450.00000000000;2452.00000000000;2412.00000000000;2341.00000000000;2284.00000000000;2275.00000000000;2231.00000000000;2187.00000000000;2218.00000000000;2245.00000000000;2279.00000000000;2255.00000000000;2172.00000000000;2128.00000000000;2059.00000000000;2025.00000000000;2016.00000000000;1934.00000000000;1838.00000000000;1741.00000000000;1638.00000000000;1560.00000000000;1486.00000000000;1369.00000000000;1286.00000000000;1163.00000000000;1061.00000000000;1016.00000000000;904.000000000000;842.000000000000;723.000000000000;532.000000000000;464.000000000000;385.000000000000;293.000000000000;243.000000000000;248.000000000000;241.000000000000;272.000000000000;271.000000000000;323.000000000000;372.000000000000;400.000000000000;379.000000000000;413.000000000000;506.000000000000;542.000000000000;622.000000000000;649.000000000000;688.000000000000;776.000000000000;802.000000000000;844.000000000000;871.000000000000;904.000000000000;975.000000000000;1042.00000000000;1058.00000000000;1065.00000000000;1166.00000000000;1224.00000000000;1268.00000000000;1347.00000000000;1413.00000000000;1499.00000000000;1554.00000000000;1581.00000000000;1686.00000000000;1852.00000000000;1823.00000000000;1910.00000000000;2047.00000000000;2152.00000000000;2240.00000000000;2252.00000000000;2495.00000000000;2587.00000000000;2532.00000000000;2651.00000000000;2853.00000000000;2826.00000000000;2817.00000000000;2941.00000000000;2869.00000000000;2726.00000000000;2711.00000000000;2795.00000000000;2846.00000000000;2783.00000000000;2711.00000000000;2655.00000000000;2676.00000000000;2629.00000000000;2643.00000000000;2640.00000000000;2645.00000000000;2630.00000000000;2643.00000000000;2625.00000000000;2666.00000000000;2652.00000000000;2695.00000000000;2678.00000000000;2660.00000000000;2644.00000000000;2618.00000000000;2646.00000000000;2664.00000000000;2687.00000000000;2653.00000000000;2641.00000000000;2670.00000000000;2640.00000000000;2659.00000000000;2682.00000000000;2653.00000000000;2642.00000000000;2635.00000000000;2652.00000000000;2658.00000000000;2638.00000000000;2656.00000000000;2667.00000000000;2633.00000000000
Gyro X : 1788.00000000000;1790.00000000000;1791.00000000000;1784.00000000000;1783.00000000000;1800.00000000000;1799.00000000000;1798.00000000000;1795.00000000000;1777.00000000000;1766.00000000000;1771.00000000000;1767.00000000000;1785.00000000000;1761.00000000000;1730.00000000000;1715.00000000000;1755.00000000000;1802.00000000000;1735.00000000000;1806.00000000000;1926.00000000000;1993.00000000000;2080.00000000000;2192.00000000000;2208.00000000000;2338.00000000000;2454.00000000000;2502.00000000000;2490.00000000000;2748.00000000000;2835.00000000000;2825.00000000000;2936.00000000000;3143.00000000000;3362.00000000000;3306.00000000000;3189.00000000000;3213.00000000000;3247.00000000000;3291.00000000000;3320.00000000000;3313.00000000000;3305.00000000000;3271.00000000000;3203.00000000000;3024.00000000000;2902.00000000000;2860.00000000000;2793.00000000000;2694.00000000000;2496.00000000000;2455.00000000000;2604.00000000000;2607.00000000000;2485.00000000000;2246.00000000000;2137.00000000000;2199.00000000000;2246.00000000000;2254.00000000000;2301.00000000000;2288.00000000000;2316.00000000000;2472.00000000000;2568.00000000000;2612.00000000000;2587.00000000000;2623.00000000000;2667.00000000000;2728.00000000000;2771.00000000000;2697.00000000000;2725.00000000000;2743.00000000000;2731.00000000000;2780.00000000000;2695.00000000000;2703.00000000000;2705.00000000000;2658.00000000000;2675.00000000000;2804.00000000000;2869.00000000000;2755.00000000000;2750.00000000000;2826.00000000000;2816.00000000000;2813.00000000000;2794.00000000000;2774.00000000000;2745.00000000000;2738.00000000000;2851.00000000000;2907.00000000000;2827.00000000000;2897.00000000000;3020.00000000000;3043.00000000000;2691.00000000000;2378.00000000000;2555.00000000000;2602.00000000000;2054.00000000000;1337.00000000000;1907.00000000000;2342.00000000000;2446.00000000000;2165.00000000000;1641.00000000000;1378.00000000000;1685.00000000000;1993.00000000000;2188.00000000000;2187.00000000000;1985.00000000000;1931.00000000000;1989.00000000000;2166.00000000000;2180.00000000000;2118.00000000000;2085.00000000000;2084.00000000000;2131.00000000000;2089.00000000000;1942.00000000000;1816.00000000000;1861.00000000000;1902.00000000000;1882.00000000000;1839.00000000000;1725.00000000000;1747.00000000000;1758.00000000000;1804.00000000000;1770.00000000000;1675.00000000000;1689.00000000000;1673.00000000000;1691.00000000000;1770.00000000000;1730.00000000000;1711.00000000000;1693.00000000000;1712.00000000000;1752.00000000000;1728.00000000000;1728.00000000000;1723.00000000000;1723.00000000000
Gyro Y : 2022.00000000000;2007.00000000000;2002.00000000000;2025.00000000000;2035.00000000000;2032.00000000000;1998.00000000000;2034.00000000000;2036.00000000000;2007.00000000000;2015.00000000000;2039.00000000000;2039.00000000000;2034.00000000000;2031.00000000000;2030.00000000000;2013.00000000000;2031.00000000000;2029.00000000000;2022.00000000000;2024.00000000000;2013.00000000000;2015.00000000000;2013.00000000000;2026.00000000000;2031.00000000000;2043.00000000000;2064.00000000000;2067.00000000000;2052.00000000000;2077.00000000000;2071.00000000000;2029.00000000000;2084.00000000000;2102.00000000000;2103.00000000000;2082.00000000000;2194.00000000000;2223.00000000000;2264.00000000000;2318.00000000000;2345.00000000000;2403.00000000000;2498.00000000000;2522.00000000000;2577.00000000000;2655.00000000000;2700.00000000000;2735.00000000000;2679.00000000000;2645.00000000000;2636.00000000000;2593.00000000000;2573.00000000000;2503.00000000000;2491.00000000000;2408.00000000000;2341.00000000000;2205.00000000000;2163.00000000000;2119.00000000000;2003.00000000000;1956.00000000000;1963.00000000000;1968.00000000000;1927.00000000000;1962.00000000000;1976.00000000000;1979.00000000000;2003.00000000000;2045.00000000000;2029.00000000000;2093.00000000000;2137.00000000000;2169.00000000000;2211.00000000000;2192.00000000000;2221.00000000000;2232.00000000000;2250.00000000000;2305.00000000000;2381.00000000000;2384.00000000000;2320.00000000000;2354.00000000000;2391.00000000000;2344.00000000000;2348.00000000000;2391.00000000000;2408.00000000000;2393.00000000000;2364.00000000000;2393.00000000000;2336.00000000000;2268.00000000000;2248.00000000000;2257.00000000000;2255.00000000000;2325.00000000000;2198.00000000000;2144.00000000000;2225.00000000000;2282.00000000000;2142.00000000000;1983.00000000000;2204.00000000000;2247.00000000000;2159.00000000000;2063.00000000000;2096.00000000000;2114.00000000000;2131.00000000000;2147.00000000000;2095.00000000000;2027.00000000000;2021.00000000000;2035.00000000000;2040.00000000000;2086.00000000000;2023.00000000000;1996.00000000000;2009.00000000000;2002.00000000000;2036.00000000000;2003.00000000000;1983.00000000000;1983.00000000000;2033.00000000000;2031.00000000000;2015.00000000000;1997.00000000000;2022.00000000000;2016.00000000000;2013.00000000000;2020.00000000000;2020.00000000000;1995.00000000000;2043.00000000000;2017.00000000000;2033.00000000000;2035.00000000000;2006.00000000000;2010.00000000000;2006.00000000000;2025.00000000000;2045.00000000000;2011.00000000000;2033.00000000000;2016.00000000000;2038.00000000000
Gyro Z : 2664.00000000000;2658.00000000000;2664.00000000000;2659.00000000000;2679.00000000000;2667.00000000000;2659.00000000000;2646.00000000000;2672.00000000000;2657.00000000000;2677.00000000000;2654.00000000000;2639.00000000000;2629.00000000000;2643.00000000000;2616.00000000000;2609.00000000000;2644.00000000000;2629.00000000000;2621.00000000000;2585.00000000000;2573.00000000000;2589.00000000000;2561.00000000000;2532.00000000000;2541.00000000000;2450.00000000000;2452.00000000000;2412.00000000000;2341.00000000000;2284.00000000000;2275.00000000000;2231.00000000000;2187.00000000000;2218.00000000000;2245.00000000000;2279.00000000000;2255.00000000000;2172.00000000000;2128.00000000000;2059.00000000000;2025.00000000000;2016.00000000000;1934.00000000000;1838.00000000000;1741.00000000000;1638.00000000000;1560.00000000000;1486.00000000000;1369.00000000000;1286.00000000000;1163.00000000000;1061.00000000000;1016.00000000000;904.000000000000;842.000000000000;723.000000000000;532.000000000000;464.000000000000;385.000000000000;293.000000000000;243.000000000000;248.000000000000;241.000000000000;272.000000000000;271.000000000000;323.000000000000;372.000000000000;400.000000000000;379.000000000000;413.000000000000;506.000000000000;542.000000000000;622.000000000000;649.000000000000;688.000000000000;776.000000000000;802.000000000000;844.000000000000;871.000000000000;904.000000000000;975.000000000000;1042.00000000000;1058.00000000000;1065.00000000000;1166.00000000000;1224.00000000000;1268.00000000000;1347.00000000000;1413.00000000000;1499.00000000000;1554.00000000000;1581.00000000000;1686.00000000000;1852.00000000000;1823.00000000000;1910.00000000000;2047.00000000000;2152.00000000000;2240.00000000000;2252.00000000000;2495.00000000000;2587.00000000000;2532.00000000000;2651.00000000000;2853.00000000000;2826.00000000000;2817.00000000000;2941.00000000000;2869.00000000000;2726.00000000000;2711.00000000000;2795.00000000000;2846.00000000000;2783.00000000000;2711.00000000000;2655.00000000000;2676.00000000000;2629.00000000000;2643.00000000000;2640.00000000000;2645.00000000000;2630.00000000000;2643.00000000000;2625.00000000000;2666.00000000000;2652.00000000000;2695.00000000000;2678.00000000000;2660.00000000000;2644.00000000000;2618.00000000000;2646.00000000000;2664.00000000000;2687.00000000000;2653.00000000000;2641.00000000000;2670.00000000000;2640.00000000000;2659.00000000000;2682.00000000000;2653.00000000000;2642.00000000000;2635.00000000000;2652.00000000000;2658.00000000000;2638.00000000000;2656.00000000000;2667.00000000000;2633.00000000000
