COMMAND 4 SAMPLE 1
Accel X : 1941.00000000000;1904.00000000000;1905.00000000000;1911.00000000000;1902.00000000000;1860.00000000000;1904.00000000000;1881.00000000000;1856.00000000000;1849.00000000000;1843.00000000000;1841.00000000000;1879.00000000000;1855.00000000000;1846.00000000000;1857.00000000000;1833.00000000000;1847.00000000000;1900.00000000000;1903.00000000000;1886.00000000000;1861.00000000000;1874.00000000000;1873.00000000000;1875.00000000000;1899.00000000000;1879.00000000000;1888.00000000000;1866.00000000000;1887.00000000000;1874.00000000000;1863.00000000000;1892.00000000000;1891.00000000000;1858.00000000000;1852.00000000000;1862.00000000000;1823.00000000000;1857.00000000000;1853.00000000000;1846.00000000000;1861.00000000000;1814.00000000000;1800.00000000000;1797.00000000000;1806.00000000000;1785.00000000000;1745.00000000000;1747.00000000000;1833.00000000000;1901.00000000000;1875.00000000000;1814.00000000000;1767.00000000000;1825.00000000000;1944.00000000000;1801.00000000000;1728.00000000000;1782.00000000000;1927.00000000000;1843.00000000000;1726.00000000000;1711.00000000000;1931.00000000000;2001.00000000000;1780.00000000000;1551.00000000000;1603.00000000000;1059.00000000000;2137.00000000000;2108.00000000000;1707.00000000000;1741.00000000000;2025.00000000000;1946.00000000000;1994.00000000000;2017.00000000000;1891.00000000000;1871.00000000000;2007.00000000000;2082.00000000000;2007.00000000000;1968.00000000000;1960.00000000000;2025.00000000000;2044.00000000000;2096.00000000000;2033.00000000000;1915.00000000000;1908.00000000000;1920.00000000000;1948.00000000000;1941.00000000000;1930.00000000000;1941.00000000000;1936.00000000000;1899.00000000000;1876.00000000000;1916.00000000000;1917.00000000000;1911.00000000000;1881.00000000000;1875.00000000000;1836.00000000000;1881.00000000000;1947.00000000000;1991.00000000000;1997.00000000000;1932.00000000000;1910.00000000000;1912.00000000000;1884.00000000000;1930.00000000000;1967.00000000000;1984.00000000000;1944.00000000000;1941.00000000000;1974.00000000000;1966.00000000000;1994.00000000000;1978.00000000000;1974.00000000000;1964.00000000000;1930.00000000000;1962.00000000000;1953.00000000000;1947.00000000000;1952.00000000000;1959.00000000000;1945.00000000000;1951.00000000000;1917.00000000000;1939.00000000000;1950.00000000000;1967.00000000000;1977.00000000000;1938.00000000000;1931.00000000000;1957.00000000000;1960.00000000000;1969.00000000000;1943.00000000000;1935.00000000000;1960.00000000000;1936.00000000000;1959.00000000000;1964.00000000000;1961.00000000000;1925.00000000000;1944.00000000000
Accel Y : 2031.00000000000;2037.00000000000;2018.00000000000;2035.00000000000;2024.00000000000;2017.00000000000;2036.00000000000;2017.00000000000;2018.00000000000;2021.00000000000;2008.00000000000;2003.00000000000;2012.00000000000;2001.00000000000;2009.00000000000;2005.00000000000;2006.00000000000;1996.00000000000;2026.00000000000;2008.00000000000;2008.00000000000;2041.00000000000;2009.00000000000;2029.00000000000;2017.00000000000;2005.00000000000;2001.00000000000;2009.00000000000;1995.00000000000;1999.00000000000;1999.00000000000;1987.00000000000;1993.00000000000;2009.00000000000;2019.00000000000;1995.00000000000;1993.00000000000;2005.00000000000;1995.00000000000;1992.00000000000;1997.00000000000;2002.00000000000;1999.00000000000;1985.00000000000;1995.00000000000;1999.00000000000;2049.00000000000;2056.00000000000;2069.00000000000;2059.00000000000;2121.00000000000;2245.00000000000;2340.00000000000;2418.00000000000;2421.00000000000;2489.00000000000;2952.00000000000;3055.00000000000;3124.00000000000;3334.00000000000;3600.00000000000;3708.00000000000;3653.00000000000;3730.00000000000;3778.00000000000;3719.00000000000;3570.00000000000;3663.00000000000;3708.00000000000;3678.00000000000;3335.00000000000;3407.00000000000;3363.00000000000;3355.00000000000;3267.00000000000;3258.00000000000;3295.00000000000;3357.00000000000;3311.00000000000;3336.00000000000;3319.00000000000;3271.00000000000;3271.00000000000;3205.00000000000;3138.00000000000;3095.00000000000;3015.00000000000;2930.00000000000;2863.00000000000;2787.00000000000;2688.00000000000;2587.00000000000;2507.00000000000;2395.00000000000;2280.00000000000;2235.00000000000;2121.00000000000;1988.00000000000;1911.00000000000;1899.00000000000;1889.00000000000;1849.00000000000;1843.00000000000;1899.00000000000;1867.00000000000;1863.00000000000;1871.00000000000;1883.00000000000;1886.00000000000;1913.00000000000;1953.00000000000;1935.00000000000;1961.00000000000;1925.00000000000;1947.00000000000;1972.00000000000;1982.00000000000;1981.00000000000;1987.00000000000;2004.00000000000;2007.00000000000;2005.00000000000;2009.00000000000;2006.00000000000;2008.00000000000;2005.00000000000;2006.00000000000;1996.00000000000;1993.00000000000;1989.00000000000;1956.00000000000;1980.00000000000;1974.00000000000;1978.00000000000;1982.00000000000;1983.00000000000;1989.00000000000;1979.00000000000;1989.00000000000;1971.00000000000;1981.00000000000;1991.00000000000;1970.00000000000;1979.00000000000;1980.00000000000;1977.00000000000;2026.00000000000;1992.00000000000;1984.00000000000;2003.00000000000
Accel Z : 2665.00000000000;2668.00000000000;2673.00000000000;2676.00000000000;2658.00000000000;2671.00000000000;2668.00000000000;2662.00000000000;2643.00000000000;2671.00000000000;2654.00000000000;2660.00000000000;2674.00000000000;2679.00000000000;2667.00000000000;2687.00000000000;2674.00000000000;2668.00000000000;2678.00000000000;2679.00000000000;2664.00000000000;2670.00000000000;2695.00000000000;2695.00000000000;2686.00000000000;2699.00000000000;2676.00000000000;2665.00000000000;2673.00000000000;2666.00000000000;2662.00000000000;2674.00000000000;2647.00000000000;2652.00000000000;2651.00000000000;2641.00000000000;2628.00000000000;2601.00000000000;2585.00000000000;2553.00000000000;2535.00000000000;2498.00000000000;2452.00000000000;2385.00000000000;2329.00000000000;2279.00000000000;2201.00000000000;2077.00000000000;2035.00000000000;1983.00000000000;1980.00000000000;1952.00000000000;1885.00000000000;1805.00000000000;1902.00000000000;1981.00000000000;1952.00000000000;1953.00000000000;2103.00000000000;2279.00000000000;2291.00000000000;2352.00000000000;2476.00000000000;2883.00000000000;3104.00000000000;3003.00000000000;2907.00000000000;3127.00000000000;3453.00000000000;3782.00000000000;3429.00000000000;3152.00000000000;2836.00000000000;2725.00000000000;2755.00000000000;2736.00000000000;2669.00000000000;2583.00000000000;2493.00000000000;2501.00000000000;2505.00000000000;2495.00000000000;2444.00000000000;2421.00000000000;2401.00000000000;2373.00000000000;2416.00000000000;2337.00000000000;2259.00000000000;2251.00000000000;2217.00000000000;2187.00000000000;2177.00000000000;2120.00000000000;2112.00000000000;2024.00000000000;1996.00000000000;1979.00000000000;1999.00000000000;2021.00000000000;2081.00000000000;2124.00000000000;2134.00000000000;2191.00000000000;2305.00000000000;2400.00000000000;2518.00000000000;2579.00000000000;2653.00000000000;2637.00000000000;2676.00000000000;2723.00000000000;2698.00000000000;2723.00000000000;2744.00000000000;2719.00000000000;2740.00000000000;2715.00000000000;2711.00000000000;2699.00000000000;2690.00000000000;2705.00000000000;2717.00000000000;2702.00000000000;2716.00000000000;2665.00000000000;2671.00000000000;2661.00000000000;2637.00000000000;2671.00000000000;2638.00000000000;2646.00000000000;2659.00000000000;2673.00000000000;2663.00000000000;2634.00000000000;2633.00000000000;2654.00000000000;2632.00000000000;2658.00000000000;2674.00000000000;2657.00000000000;2681.00000000000;2646.00000000000;2650.00000000000;2680.00000000000;2656.00000000000;2671.00000000000;2684.00000000000;2664.00000000000
Gyro X : 1941.00000000000;1904.00000000000;1905.00000000000;1911.00000000000;1902.00000000000;1860.00000000000;1904.00000000000;1881.00000000000;1856.00000000000;1849.00000000000;1843.00000000000;1841.00000000000;1879.00000000000;1855.00000000000;1846.00000000000;1857.00000000000;1833.00000000000;1847.00000000000;1900.00000000000;1903.00000000000;1886.00000000000;1861.00000000000;1874.00000000000;1873.00000000000;1875.00000000000;1899.00000000000;1879.00000000000;1888.00000000000;1866.00000000000;1887.00000000000;1874.00000000000;1863.00000000000;1892.00000000000;1891.00000000000;1858.00000000000;1852.00000000000;1862.00000000000;1823.00000000000;1857.00000000000;1853.00000000000;1846.00000000000;1861.00000000000;1814.00000000000;1800.00000000000;1797.00000000000;1806.00000000000;1785.00000000000;1745.00000000000;1747.00000000000;1833.00000000000;1901.00000000000;1875.00000000000;1814.00000000000;1767.00000000000;1825.00000000000;1944.00000000000;1801.00000000000;1728.00000000000;1782.00000000000;1927.00000000000;1843.00000000000;1726.00000000000;1711.00000000000;1931.00000000000;2001.00000000000;1780.00000000000;1551.00000000000;1603.00000000000;1059.00000000000;2137.00000000000;2108.00000000000;1707.00000000000;1741.00000000000;2025.00000000000;1946.00000000000;1994.00000000000;2017.00000000000;1891.00000000000;1871.00000000000;2007.00000000000;2082.00000000000;2007.00000000000;1968.00000000000;1960.00000000000;2025.00000000000;2044.00000000000;2096.00000000000;2033.00000000000;1915.00000000000;1908.00000000000;1920.00000000000;1948.00000000000;1941.00000000000;1930.00000000000;1941.00000000000;1936.00000000000;1899.00000000000;1876.00000000000;1916.00000000000;1917.00000000000;1911.00000000000;1881.00000000000;1875.00000000000;1836.00000000000;1881.00000000000;1947.00000000000;1991.00000000000;1997.00000000000;1932.00000000000;1910.00000000000;1912.00000000000;1884.00000000000;1930.00000000000;1967.00000000000;1984.00000000000;1944.00000000000;1941.00000000000;1974.00000000000;1966.00000000000;1994.00000000000;1978.00000000000;1974.00000000000;1964.00000000000;1930.00000000000;1962.00000000000;1953.00000000000;1947.00000000000;1952.00000000000;1959.00000000000;1945.00000000000;1951.00000000000;1917.00000000000;1939.00000000000;1950.00000000000;1967.00000000000;1977.00000000000;1938.00000000000;1931.00000000000;1957.00000000000;1960.00000000000;1969.00000000000;1943.00000000000;1935.00000000000;1960.00000000000;1936.00000000000;1959.00000000000;1964.00000000000;1961.00000000000;1925.00000000000;1944.00000000000
Gyro Y : 2031.00000000000;2037.00000000000;2018.00000000000;2035.00000000000;2024.00000000000;2017.00000000000;2036.00000000000;2017.00000000000;2018.00000000000;2021.00000000000;2008.00000000000;2003.00000000000;2012.00000000000;2001.00000000000;2009.00000000000;2005.00000000000;2006.00000000000;1996.00000000000;2026.00000000000;2008.00000000000;2008.00000000000;2041.00000000000;2009.00000000000;2029.00000000000;2017.00000000000;2005.00000000000;2001.00000000000;2009.00000000000;1995.00000000000;1999.00000000000;1999.00000000000;1987.00000000000;1993.00000000000;2009.00000000000;2019.00000000000;1995.00000000000;1993.00000000000;2005.00000000000;1995.00000000000;1992.00000000000;1997.00000000000;2002.00000000000;1999.00000000000;1985.00000000000;1995.00000000000;1999.00000000000;2049.00000000000;2056.00000000000;2069.00000000000;2059.00000000000;2121.00000000000;2245.00000000000;2340.00000000000;2418.00000000000;2421.00000000000;2489.00000000000;2952.00000000000;3055.00000000000;3124.00000000000;3334.00000000000;3600.00000000000;3708.00000000000;3653.00000000000;3730.00000000000;3778.00000000000;3719.00000000000;3570.00000000000;3663.00000000000;3708.00000000000;3678.00000000000;3335.00000000000;3407.00000000000;3363.00000000000;3355.00000000000;3267.00000000000;3258.00000000000;3295.00000000000;3357.00000000000;3311.00000000000;3336.00000000000;3319.00000000000;3271.00000000000;3271.00000000000;3205.00000000000;3138.00000000000;3095.00000000000;3015.00000000000;2930.00000000000;2863.00000000000;2787.00000000000;2688.00000000000;2587.00000000000;2507.00000000000;2395.00000000000;2280.00000000000;2235.00000000000;2121.00000000000;1988.00000000000;1911.00000000000;1899.00000000000;1889.00000000000;1849.00000000000;1843.00000000000;1899.00000000000;1867.00000000000;1863.00000000000;1871.00000000000;1883.00000000000;1886.00000000000;1913.00000000000;1953.00000000000;1935.00000000000;1961.00000000000;1925.00000000000;1947.00000000000;1972.00000000000;1982.00000000000;1981.00000000000;1987.00000000000;2004.00000000000;2007.00000000000;2005.00000000000;2009.00000000000;2006.00000000000;2008.00000000000;2005.00000000000;2006.00000000000;1996.00000000000;1993.00000000000;1989.00000000000;1956.00000000000;1980.00000000000;1974.00000000000;1978.00000000000;1982.00000000000;1983.00000000000;1989.00000000000;1979.00000000000;1989.00000000000;1971.00000000000;1981.00000000000;1991.00000000000;1970.00000000000;1979.00000000000;1980.00000000000;1977.00000000000;2026.00000000000;1992.00000000000;1984.00000000000;2003.00000000000
Gyro Z : 2665.00000000000;2668.00000000000;2673.00000000000;2676.00000000000;2658.00000000000;2671.00000000000;2668.00000000000;2662.00000000000;2643.00000000000;2671.00000000000;2654.00000000000;2660.00000000000;2674.00000000000;2679.00000000000;2667.00000000000;2687.00000000000;2674.00000000000;2668.00000000000;2678.00000000000;2679.00000000000;2664.00000000000;2670.00000000000;2695.00000000000;2695.00000000000;2686.00000000000;2699.00000000000;2676.00000000000;2665.00000000000;2673.00000000000;2666.00000000000;2662.00000000000;2674.00000000000;2647.00000000000;2652.00000000000;2651.00000000000;2641.00000000000;2628.00000000000;2601.00000000000;2585.00000000000;2553.00000000000;2535.00000000000;2498.00000000000;2452.00000000000;2385.00000000000;2329.00000000000;2279.00000000000;2201.00000000000;2077.00000000000;2035.00000000000;1983.00000000000;1980.00000000000;1952.00000000000;1885.00000000000;1805.00000000000;1902.00000000000;1981.00000000000;1952.00000000000;1953.00000000000;2103.00000000000;2279.00000000000;2291.00000000000;2352.00000000000;2476.00000000000;2883.00000000000;3104.00000000000;3003.00000000000;2907.00000000000;3127.00000000000;3453.00000000000;3782.00000000000;3429.00000000000;3152.00000000000;2836.00000000000;2725.00000000000;2755.00000000000;2736.00000000000;2669.00000000000;2583.00000000000;2493.00000000000;2501.00000000000;2505.00000000000;2495.00000000000;2444.00000000000;2421.00000000000;2401.00000000000;2373.00000000000;2416.00000000000;2337.00000000000;2259.00000000000;2251.00000000000;2217.00000000000;2187.00000000000;2177.00000000000;2120.00000000000;2112.00000000000;2024.00000000000;1996.00000000000;1979.00000000000;1999.00000000000;2021.00000000000;2081.00000000000;2124.00000000000;2134.00000000000;2191.00000000000;2305.00000000000;2400.00000000000;2518.00000000000;2579.00000000000;2653.00000000000;2637.00000000000;2676.00000000000;2723.00000000000;2698.00000000000;2723.00000000000;2744.00000000000;2719.00000000000;2740.00000000000;2715.00000000000;2711.00000000000;2699.00000000000;2690.00000000000;2705.00000000000;2717.00000000000;2702.00000000000;2716.00000000000;2665.00000000000;2671.00000000000;2661.00000000000;2637.00000000000;2671.00000000000;2638.00000000000;2646.00000000000;2659.00000000000;2673.00000000000;2663.00000000000;2634.00000000000;2633.00000000000;2654.00000000000;2632.00000000000;2658.00000000000;2674.00000000000;2657.00000000000;2681.00000000000;2646.00000000000;2650.00000000000;2680.00000000000;2656.00000000000;2671.00000000000;2684.00000000000;2664.00000000000
