COMMAND 1 SAMPLE 1
Accel X : 1843.00000000000;1841.00000000000;1838.00000000000;1840.00000000000;1847.00000000000;1842.00000000000;1849.00000000000;1848.00000000000;1849.00000000000;1867.00000000000;1869.00000000000;1826.00000000000;1862.00000000000;1852.00000000000;1848.00000000000;1839.00000000000;1828.00000000000;1836.00000000000;1841.00000000000;1865.00000000000;1812.00000000000;1850.00000000000;1839.00000000000;1851.00000000000;1859.00000000000;1844.00000000000;1802.00000000000;1827.00000000000;1823.00000000000;1821.00000000000;1820.00000000000;1825.00000000000;1812.00000000000;1833.00000000000;1806.00000000000;1817.00000000000;1795.00000000000;1772.00000000000;1769.00000000000;1743.00000000000;1767.00000000000;1831.00000000000;1849.00000000000;1926.00000000000;2063.00000000000;2137.00000000000;2246.00000000000;2467.00000000000;2766.00000000000;2999.00000000000;3121.00000000000;3077.00000000000;3085.00000000000;3227.00000000000;3005.00000000000;2531.00000000000;2354.00000000000;2203.00000000000;1972.00000000000;1884.00000000000;1735.00000000000;1432.00000000000;1085.00000000000;756.000000000000;501.000000000000;86.0000000000000;18.0000000000000;17.0000000000000;19.0000000000000;22.0000000000000;22.0000000000000;182.000000000000;171.000000000000;353.000000000000;731.000000000000;896.000000000000;1007.00000000000;1293.00000000000;1539.00000000000;1723.00000000000;1847.00000000000;1977.00000000000;2127.00000000000;2117.00000000000;2074.00000000000;2138.00000000000;2436.00000000000;2629.00000000000;2788.00000000000;3113.00000000000;3265.00000000000;3029.00000000000;3171.00000000000;3885.00000000000;4047.00000000000;3808.00000000000;3540.00000000000;3432.00000000000;3287.00000000000;3255.00000000000;3363.00000000000;3467.00000000000;3431.00000000000;3182.00000000000;2916.00000000000;2715.00000000000;2563.00000000000;2276.00000000000;2088.00000000000;2091.00000000000;2115.00000000000;2107.00000000000;1867.00000000000;1718.00000000000;1775.00000000000;1846.00000000000;1834.00000000000;1795.00000000000;1833.00000000000;1820.00000000000;1837.00000000000;1890.00000000000;1868.00000000000;1784.00000000000;1774.00000000000;1768.00000000000;1819.00000000000;1873.00000000000;1862.00000000000;1820.00000000000;1799.00000000000;1827.00000000000;1845.00000000000;1835.00000000000;1830.00000000000;1836.00000000000;1825.00000000000;1846.00000000000;1819.00000000000;1841.00000000000;1863.00000000000;1852.00000000000;1824.00000000000;1836.00000000000;1855.00000000000;1887.00000000000;1915.00000000000;1918.00000000000;1903.00000000000;1879.00000000000
Accel Y : 2032.00000000000;2014.00000000000;2024.00000000000;2023.00000000000;2025.00000000000;2033.00000000000;2015.00000000000;2048.00000000000;2039.00000000000;2032.00000000000;2036.00000000000;2034.00000000000;2035.00000000000;2025.00000000000;2031.00000000000;2033.00000000000;2034.00000000000;2036.00000000000;2031.00000000000;2045.00000000000;2032.00000000000;2038.00000000000;2030.00000000000;2023.00000000000;2028.00000000000;2049.00000000000;2027.00000000000;2031.00000000000;2027.00000000000;2033.00000000000;2043.00000000000;2031.00000000000;2036.00000000000;2042.00000000000;2043.00000000000;2037.00000000000;2051.00000000000;2071.00000000000;2086.00000000000;2050.00000000000;2086.00000000000;2087.00000000000;2095.00000000000;2051.00000000000;2088.00000000000;2102.00000000000;2064.00000000000;2010.00000000000;1994.00000000000;2026.00000000000;2066.00000000000;1993.00000000000;1963.00000000000;2031.00000000000;1924.00000000000;1820.00000000000;1877.00000000000;1833.00000000000;1734.00000000000;1858.00000000000;1878.00000000000;1893.00000000000;1962.00000000000;2014.00000000000;2012.00000000000;2130.00000000000;2069.00000000000;2057.00000000000;1997.00000000000;1964.00000000000;1904.00000000000;1862.00000000000;1830.00000000000;1883.00000000000;1890.00000000000;1905.00000000000;1904.00000000000;1912.00000000000;1909.00000000000;1918.00000000000;2054.00000000000;2123.00000000000;2044.00000000000;2013.00000000000;2144.00000000000;2276.00000000000;2357.00000000000;2396.00000000000;2441.00000000000;2452.00000000000;2339.00000000000;2059.00000000000;1810.00000000000;1996.00000000000;1885.00000000000;1959.00000000000;1957.00000000000;1922.00000000000;1941.00000000000;1952.00000000000;1925.00000000000;1939.00000000000;1911.00000000000;1925.00000000000;1921.00000000000;1912.00000000000;1951.00000000000;1930.00000000000;1894.00000000000;1911.00000000000;1936.00000000000;1892.00000000000;1860.00000000000;1893.00000000000;1943.00000000000;1926.00000000000;1945.00000000000;1950.00000000000;1942.00000000000;1965.00000000000;1975.00000000000;2009.00000000000;2004.00000000000;2000.00000000000;1975.00000000000;1990.00000000000;2002.00000000000;2010.00000000000;1985.00000000000;1987.00000000000;1999.00000000000;1998.00000000000;1990.00000000000;2009.00000000000;1989.00000000000;1971.00000000000;1972.00000000000;1992.00000000000;1967.00000000000;1987.00000000000;1976.00000000000;1979.00000000000;1996.00000000000;1971.00000000000;1996.00000000000;2018.00000000000;1998.00000000000;2014.00000000000;2015.00000000000;2020.00000000000
Accel Z : 2661.00000000000;2674.00000000000;2684.00000000000;2657.00000000000;2658.00000000000;2664.00000000000;2679.00000000000;2645.00000000000;2662.00000000000;2669.00000000000;2670.00000000000;2663.00000000000;2667.00000000000;2651.00000000000;2694.00000000000;2676.00000000000;2686.00000000000;2674.00000000000;2687.00000000000;2685.00000000000;2674.00000000000;2677.00000000000;2679.00000000000;2655.00000000000;2678.00000000000;2670.00000000000;2675.00000000000;2663.00000000000;2658.00000000000;2686.00000000000;2662.00000000000;2675.00000000000;2674.00000000000;2706.00000000000;2708.00000000000;2705.00000000000;2721.00000000000;2760.00000000000;2799.00000000000;2824.00000000000;2857.00000000000;2876.00000000000;2903.00000000000;2895.00000000000;2894.00000000000;2866.00000000000;2715.00000000000;2586.00000000000;2507.00000000000;2424.00000000000;2338.00000000000;2128.00000000000;2063.00000000000;1983.00000000000;1938.00000000000;1841.00000000000;1785.00000000000;1729.00000000000;1676.00000000000;1596.00000000000;1610.00000000000;1580.00000000000;1550.00000000000;1415.00000000000;1522.00000000000;1734.00000000000;1796.00000000000;1727.00000000000;1469.00000000000;1682.00000000000;1679.00000000000;1691.00000000000;1732.00000000000;1691.00000000000;1752.00000000000;1651.00000000000;1563.00000000000;1561.00000000000;1617.00000000000;1789.00000000000;1690.00000000000;1433.00000000000;1384.00000000000;1444.00000000000;1554.00000000000;1579.00000000000;1609.00000000000;1677.00000000000;1824.00000000000;1810.00000000000;1730.00000000000;1591.00000000000;1949.00000000000;2103.00000000000;2013.00000000000;1857.00000000000;1810.00000000000;1895.00000000000;1927.00000000000;1890.00000000000;1843.00000000000;1855.00000000000;1843.00000000000;1896.00000000000;1929.00000000000;1956.00000000000;2109.00000000000;2150.00000000000;2266.00000000000;2374.00000000000;2425.00000000000;2409.00000000000;2466.00000000000;2584.00000000000;2602.00000000000;2654.00000000000;2666.00000000000;2680.00000000000;2695.00000000000;2691.00000000000;2686.00000000000;2705.00000000000;2712.00000000000;2727.00000000000;2697.00000000000;2668.00000000000;2691.00000000000;2704.00000000000;2698.00000000000;2676.00000000000;2661.00000000000;2660.00000000000;2637.00000000000;2641.00000000000;2627.00000000000;2621.00000000000;2610.00000000000;2604.00000000000;2621.00000000000;2609.00000000000;2594.00000000000;2619.00000000000;2640.00000000000;2633.00000000000;2647.00000000000;2681.00000000000;2707.00000000000;2687.00000000000;2699.00000000000;2679.00000000000
Gyro X : 1843.00000000000;1841.00000000000;1838.00000000000;1840.00000000000;1847.00000000000;1842.00000000000;1849.00000000000;1848.00000000000;1849.00000000000;1867.00000000000;1869.00000000000;1826.00000000000;1862.00000000000;1852.00000000000;1848.00000000000;1839.00000000000;1828.00000000000;1836.00000000000;1841.00000000000;1865.00000000000;1812.00000000000;1850.00000000000;1839.00000000000;1851.00000000000;1859.00000000000;1844.00000000000;1802.00000000000;1827.00000000000;1823.00000000000;1821.00000000000;1820.00000000000;1825.00000000000;1812.00000000000;1833.00000000000;1806.00000000000;1817.00000000000;1795.00000000000;1772.00000000000;1769.00000000000;1743.00000000000;1767.00000000000;1831.00000000000;1849.00000000000;1926.00000000000;2063.00000000000;2137.00000000000;2246.00000000000;2467.00000000000;2766.00000000000;2999.00000000000;3121.00000000000;3077.00000000000;3085.00000000000;3227.00000000000;3005.00000000000;2531.00000000000;2354.00000000000;2203.00000000000;1972.00000000000;1884.00000000000;1735.00000000000;1432.00000000000;1085.00000000000;756.000000000000;501.000000000000;86.0000000000000;18.0000000000000;17.0000000000000;19.0000000000000;22.0000000000000;22.0000000000000;182.000000000000;171.000000000000;353.000000000000;731.000000000000;896.000000000000;1007.00000000000;1293.00000000000;1539.00000000000;1723.00000000000;1847.00000000000;1977.00000000000;2127.00000000000;2117.00000000000;2074.00000000000;2138.00000000000;2436.00000000000;2629.00000000000;2788.00000000000;3113.00000000000;3265.00000000000;3029.00000000000;3171.00000000000;3885.00000000000;4047.00000000000;3808.00000000000;3540.00000000000;3432.00000000000;3287.00000000000;3255.00000000000;3363.00000000000;3467.00000000000;3431.00000000000;3182.00000000000;2916.00000000000;2715.00000000000;2563.00000000000;2276.00000000000;2088.00000000000;2091.00000000000;2115.00000000000;2107.00000000000;1867.00000000000;1718.00000000000;1775.00000000000;1846.00000000000;1834.00000000000;1795.00000000000;1833.00000000000;1820.00000000000;1837.00000000000;1890.00000000000;1868.00000000000;1784.00000000000;1774.00000000000;1768.00000000000;1819.00000000000;1873.00000000000;1862.00000000000;1820.00000000000;1799.00000000000;1827.00000000000;1845.00000000000;1835.00000000000;1830.00000000000;1836.00000000000;1825.00000000000;1846.00000000000;1819.00000000000;1841.00000000000;1863.00000000000;1852.00000000000;1824.00000000000;1836.00000000000;1855.00000000000;1887.00000000000;1915.00000000000;1918.00000000000;1903.00000000000;1879.00000000000
Gyro Y : 2032.00000000000;2014.00000000000;2024.00000000000;2023.00000000000;2025.00000000000;2033.00000000000;2015.00000000000;2048.00000000000;2039.00000000000;2032.00000000000;2036.00000000000;2034.00000000000;2035.00000000000;2025.00000000000;2031.00000000000;2033.00000000000;2034.00000000000;2036.00000000000;2031.00000000000;2045.00000000000;2032.00000000000;2038.00000000000;2030.00000000000;2023.00000000000;2028.00000000000;2049.00000000000;2027.00000000000;2031.00000000000;2027.00000000000;2033.00000000000;2043.00000000000;2031.00000000000;2036.00000000000;2042.00000000000;2043.00000000000;2037.00000000000;2051.00000000000;2071.00000000000;2086.00000000000;2050.00000000000;2086.00000000000;2087.00000000000;2095.00000000000;2051.00000000000;2088.00000000000;2102.00000000000;2064.00000000000;2010.00000000000;1994.00000000000;2026.00000000000;2066.00000000000;1993.00000000000;1963.00000000000;2031.00000000000;1924.00000000000;1820.00000000000;1877.00000000000;1833.00000000000;1734.00000000000;1858.00000000000;1878.00000000000;1893.00000000000;1962.00000000000;2014.00000000000;2012.00000000000;2130.00000000000;2069.00000000000;2057.00000000000;1997.00000000000;1964.00000000000;1904.00000000000;1862.00000000000;1830.00000000000;1883.00000000000;1890.00000000000;1905.00000000000;1904.00000000000;1912.00000000000;1909.00000000000;1918.00000000000;2054.00000000000;2123.00000000000;2044.00000000000;2013.00000000000;2144.00000000000;2276.00000000000;2357.00000000000;2396.00000000000;2441.00000000000;2452.00000000000;2339.00000000000;2059.00000000000;1810.00000000000;1996.00000000000;1885.00000000000;1959.00000000000;1957.00000000000;1922.00000000000;1941.00000000000;1952.00000000000;1925.00000000000;1939.00000000000;1911.00000000000;1925.00000000000;1921.00000000000;1912.00000000000;1951.00000000000;1930.00000000000;1894.00000000000;1911.00000000000;1936.00000000000;1892.00000000000;1860.00000000000;1893.00000000000;1943.00000000000;1926.00000000000;1945.00000000000;1950.00000000000;1942.00000000000;1965.00000000000;1975.00000000000;2009.00000000000;2004.00000000000;2000.00000000000;1975.00000000000;1990.00000000000;2002.00000000000;2010.00000000000;1985.00000000000;1987.00000000000;1999.00000000000;1998.00000000000;1990.00000000000;2009.00000000000;1989.00000000000;1971.00000000000;1972.00000000000;1992.00000000000;1967.00000000000;1987.00000000000;1976.00000000000;1979.00000000000;1996.00000000000;1971.00000000000;1996.00000000000;2018.00000000000;1998.00000000000;2014.00000000000;2015.00000000000;2020.00000000000
Gyro Z : 2661.00000000000;2674.00000000000;2684.00000000000;2657.00000000000;2658.00000000000;2664.00000000000;2679.00000000000;2645.00000000000;2662.00000000000;2669.00000000000;2670.00000000000;2663.00000000000;2667.00000000000;2651.00000000000;2694.00000000000;2676.00000000000;2686.00000000000;2674.00000000000;2687.00000000000;2685.00000000000;2674.00000000000;2677.00000000000;2679.00000000000;2655.00000000000;2678.00000000000;2670.00000000000;2675.00000000000;2663.00000000000;2658.00000000000;2686.00000000000;2662.00000000000;2675.00000000000;2674.00000000000;2706.00000000000;2708.00000000000;2705.00000000000;2721.00000000000;2760.00000000000;2799.00000000000;2824.00000000000;2857.00000000000;2876.00000000000;2903.00000000000;2895.00000000000;2894.00000000000;2866.00000000000;2715.00000000000;2586.00000000000;2507.00000000000;2424.00000000000;2338.00000000000;2128.00000000000;2063.00000000000;1983.00000000000;1938.00000000000;1841.00000000000;1785.00000000000;1729.00000000000;1676.00000000000;1596.00000000000;1610.00000000000;1580.00000000000;1550.00000000000;1415.00000000000;1522.00000000000;1734.00000000000;1796.00000000000;1727.00000000000;1469.00000000000;1682.00000000000;1679.00000000000;1691.00000000000;1732.00000000000;1691.00000000000;1752.00000000000;1651.00000000000;1563.00000000000;1561.00000000000;1617.00000000000;1789.00000000000;1690.00000000000;1433.00000000000;1384.00000000000;1444.00000000000;1554.00000000000;1579.00000000000;1609.00000000000;1677.00000000000;1824.00000000000;1810.00000000000;1730.00000000000;1591.00000000000;1949.00000000000;2103.00000000000;2013.00000000000;1857.00000000000;1810.00000000000;1895.00000000000;1927.00000000000;1890.00000000000;1843.00000000000;1855.00000000000;1843.00000000000;1896.00000000000;1929.00000000000;1956.00000000000;2109.00000000000;2150.00000000000;2266.00000000000;2374.00000000000;2425.00000000000;2409.00000000000;2466.00000000000;2584.00000000000;2602.00000000000;2654.00000000000;2666.00000000000;2680.00000000000;2695.00000000000;2691.00000000000;2686.00000000000;2705.00000000000;2712.00000000000;2727.00000000000;2697.00000000000;2668.00000000000;2691.00000000000;2704.00000000000;2698.00000000000;2676.00000000000;2661.00000000000;2660.00000000000;2637.00000000000;2641.00000000000;2627.00000000000;2621.00000000000;2610.00000000000;2604.00000000000;2621.00000000000;2609.00000000000;2594.00000000000;2619.00000000000;2640.00000000000;2633.00000000000;2647.00000000000;2681.00000000000;2707.00000000000;2687.00000000000;2699.00000000000;2679.00000000000
