COMMAND 1 SAMPLE 1
Accel X : 1854.00000000000;1858.00000000000;1858.00000000000;1865.00000000000;1852.00000000000;1853.00000000000;1851.00000000000;1851.00000000000;1845.00000000000;1858.00000000000;1868.00000000000;1885.00000000000;1866.00000000000;1877.00000000000;1874.00000000000;1859.00000000000;1858.00000000000;1860.00000000000;1851.00000000000;1873.00000000000;1855.00000000000;1866.00000000000;1844.00000000000;1865.00000000000;1874.00000000000;1842.00000000000;1844.00000000000;1866.00000000000;1843.00000000000;1814.00000000000;1813.00000000000;1795.00000000000;1794.00000000000;1818.00000000000;1890.00000000000;1959.00000000000;1976.00000000000;2149.00000000000;2405.00000000000;2641.00000000000;2619.00000000000;2739.00000000000;3026.00000000000;3439.00000000000;3617.00000000000;3416.00000000000;3277.00000000000;3428.00000000000;3497.00000000000;3427.00000000000;3142.00000000000;2921.00000000000;2686.00000000000;2479.00000000000;2343.00000000000;2181.00000000000;1931.00000000000;1745.00000000000;1712.00000000000;1663.00000000000;1485.00000000000;1255.00000000000;1062.00000000000;875.000000000000;543.000000000000;16.0000000000000;17.0000000000000;19.0000000000000;20.0000000000000;21.0000000000000;23.0000000000000;86.0000000000000;284.000000000000;335.000000000000;520.000000000000;836.000000000000;1091.00000000000;1263.00000000000;1385.00000000000;1648.00000000000;1939.00000000000;1919.00000000000;1981.00000000000;2152.00000000000;2282.00000000000;2526.00000000000;2961.00000000000;3486.00000000000;4016.00000000000;3290.00000000000;2748.00000000000;4077.00000000000;4074.00000000000;4025.00000000000;3582.00000000000;3370.00000000000;3252.00000000000;3301.00000000000;3280.00000000000;3202.00000000000;2943.00000000000;2875.00000000000;2954.00000000000;3028.00000000000;3060.00000000000;3003.00000000000;2853.00000000000;2660.00000000000;2453.00000000000;2257.00000000000;2104.00000000000;1898.00000000000;1782.00000000000;1835.00000000000;1917.00000000000;1863.00000000000;1760.00000000000;1694.00000000000;1702.00000000000;1745.00000000000;1844.00000000000;1771.00000000000;1722.00000000000;1714.00000000000;1714.00000000000;1797.00000000000;1812.00000000000;1823.00000000000;1770.00000000000;1748.00000000000;1743.00000000000;1805.00000000000;1876.00000000000;1876.00000000000;1824.00000000000;1817.00000000000;1827.00000000000;1844.00000000000;1859.00000000000;1862.00000000000;1812.00000000000;1805.00000000000;1805.00000000000;1791.00000000000;1805.00000000000;1816.00000000000;1821.00000000000;1753.00000000000;1793.00000000000;1807.00000000000
Accel Y : 2025.00000000000;2041.00000000000;2011.00000000000;2040.00000000000;2037.00000000000;2007.00000000000;2011.00000000000;2036.00000000000;2031.00000000000;1997.00000000000;2011.00000000000;2039.00000000000;2024.00000000000;2038.00000000000;2039.00000000000;2009.00000000000;2024.00000000000;2020.00000000000;2010.00000000000;2021.00000000000;2028.00000000000;2036.00000000000;2018.00000000000;2026.00000000000;2028.00000000000;2022.00000000000;2027.00000000000;2025.00000000000;2031.00000000000;2022.00000000000;2022.00000000000;2019.00000000000;2014.00000000000;2011.00000000000;2027.00000000000;2028.00000000000;2039.00000000000;2045.00000000000;2041.00000000000;2038.00000000000;2022.00000000000;1994.00000000000;1983.00000000000;1969.00000000000;1991.00000000000;2021.00000000000;1946.00000000000;1879.00000000000;1836.00000000000;1795.00000000000;1767.00000000000;1809.00000000000;1816.00000000000;1786.00000000000;1842.00000000000;1908.00000000000;1945.00000000000;1974.00000000000;2108.00000000000;2203.00000000000;2294.00000000000;2371.00000000000;2551.00000000000;2668.00000000000;2804.00000000000;2815.00000000000;2711.00000000000;2682.00000000000;2619.00000000000;2533.00000000000;2554.00000000000;2531.00000000000;2502.00000000000;2441.00000000000;2460.00000000000;2480.00000000000;2435.00000000000;2326.00000000000;2279.00000000000;2412.00000000000;2520.00000000000;2424.00000000000;2413.00000000000;2441.00000000000;2433.00000000000;2505.00000000000;2591.00000000000;2618.00000000000;2486.00000000000;2038.00000000000;1661.00000000000;2011.00000000000;1864.00000000000;1894.00000000000;1936.00000000000;1923.00000000000;1915.00000000000;1925.00000000000;1888.00000000000;1872.00000000000;1833.00000000000;1865.00000000000;1852.00000000000;1827.00000000000;1809.00000000000;1770.00000000000;1788.00000000000;1824.00000000000;1850.00000000000;1836.00000000000;1786.00000000000;1782.00000000000;1794.00000000000;1843.00000000000;1911.00000000000;1862.00000000000;1857.00000000000;1899.00000000000;1930.00000000000;1923.00000000000;1949.00000000000;1928.00000000000;1977.00000000000;1975.00000000000;2004.00000000000;1998.00000000000;1994.00000000000;1998.00000000000;2012.00000000000;2014.00000000000;2005.00000000000;2009.00000000000;2027.00000000000;2004.00000000000;2038.00000000000;2008.00000000000;2007.00000000000;2016.00000000000;2003.00000000000;2015.00000000000;1989.00000000000;2008.00000000000;1999.00000000000;2005.00000000000;2010.00000000000;2019.00000000000;2017.00000000000;2025.00000000000;2051.00000000000;2052.00000000000
Accel Z : 2683.00000000000;2654.00000000000;2671.00000000000;2662.00000000000;2668.00000000000;2657.00000000000;2668.00000000000;2658.00000000000;2671.00000000000;2662.00000000000;2639.00000000000;2657.00000000000;2656.00000000000;2682.00000000000;2679.00000000000;2651.00000000000;2669.00000000000;2680.00000000000;2665.00000000000;2659.00000000000;2672.00000000000;2654.00000000000;2672.00000000000;2671.00000000000;2684.00000000000;2674.00000000000;2669.00000000000;2671.00000000000;2677.00000000000;2684.00000000000;2662.00000000000;2677.00000000000;2682.00000000000;2705.00000000000;2707.00000000000;2729.00000000000;2650.00000000000;2656.00000000000;2687.00000000000;2717.00000000000;2695.00000000000;2591.00000000000;2468.00000000000;2343.00000000000;2355.00000000000;2289.00000000000;2064.00000000000;1978.00000000000;1880.00000000000;1904.00000000000;1849.00000000000;1761.00000000000;1762.00000000000;1669.00000000000;1655.00000000000;1585.00000000000;1558.00000000000;1515.00000000000;1509.00000000000;1471.00000000000;1428.00000000000;1397.00000000000;1428.00000000000;1524.00000000000;1650.00000000000;1703.00000000000;1748.00000000000;1808.00000000000;1697.00000000000;1805.00000000000;1726.00000000000;1701.00000000000;1595.00000000000;1541.00000000000;1578.00000000000;1560.00000000000;1425.00000000000;1490.00000000000;1494.00000000000;1577.00000000000;1577.00000000000;1432.00000000000;1350.00000000000;1330.00000000000;1475.00000000000;1515.00000000000;1557.00000000000;1653.00000000000;1955.00000000000;1542.00000000000;1494.00000000000;2012.00000000000;1856.00000000000;1787.00000000000;1784.00000000000;1891.00000000000;1940.00000000000;1853.00000000000;1834.00000000000;1843.00000000000;1820.00000000000;1840.00000000000;1795.00000000000;1743.00000000000;1727.00000000000;1807.00000000000;1880.00000000000;1948.00000000000;2007.00000000000;2160.00000000000;2199.00000000000;2335.00000000000;2441.00000000000;2530.00000000000;2517.00000000000;2514.00000000000;2633.00000000000;2661.00000000000;2640.00000000000;2663.00000000000;2691.00000000000;2701.00000000000;2726.00000000000;2711.00000000000;2723.00000000000;2734.00000000000;2720.00000000000;2769.00000000000;2742.00000000000;2723.00000000000;2711.00000000000;2695.00000000000;2723.00000000000;2717.00000000000;2683.00000000000;2700.00000000000;2693.00000000000;2669.00000000000;2677.00000000000;2651.00000000000;2642.00000000000;2653.00000000000;2647.00000000000;2643.00000000000;2649.00000000000;2649.00000000000;2647.00000000000;2652.00000000000;2667.00000000000;2699.00000000000
Gyro X : 1854.00000000000;1858.00000000000;1858.00000000000;1865.00000000000;1852.00000000000;1853.00000000000;1851.00000000000;1851.00000000000;1845.00000000000;1858.00000000000;1868.00000000000;1885.00000000000;1866.00000000000;1877.00000000000;1874.00000000000;1859.00000000000;1858.00000000000;1860.00000000000;1851.00000000000;1873.00000000000;1855.00000000000;1866.00000000000;1844.00000000000;1865.00000000000;1874.00000000000;1842.00000000000;1844.00000000000;1866.00000000000;1843.00000000000;1814.00000000000;1813.00000000000;1795.00000000000;1794.00000000000;1818.00000000000;1890.00000000000;1959.00000000000;1976.00000000000;2149.00000000000;2405.00000000000;2641.00000000000;2619.00000000000;2739.00000000000;3026.00000000000;3439.00000000000;3617.00000000000;3416.00000000000;3277.00000000000;3428.00000000000;3497.00000000000;3427.00000000000;3142.00000000000;2921.00000000000;2686.00000000000;2479.00000000000;2343.00000000000;2181.00000000000;1931.00000000000;1745.00000000000;1712.00000000000;1663.00000000000;1485.00000000000;1255.00000000000;1062.00000000000;875.000000000000;543.000000000000;16.0000000000000;17.0000000000000;19.0000000000000;20.0000000000000;21.0000000000000;23.0000000000000;86.0000000000000;284.000000000000;335.000000000000;520.000000000000;836.000000000000;1091.00000000000;1263.00000000000;1385.00000000000;1648.00000000000;1939.00000000000;1919.00000000000;1981.00000000000;2152.00000000000;2282.00000000000;2526.00000000000;2961.00000000000;3486.00000000000;4016.00000000000;3290.00000000000;2748.00000000000;4077.00000000000;4074.00000000000;4025.00000000000;3582.00000000000;3370.00000000000;3252.00000000000;3301.00000000000;3280.00000000000;3202.00000000000;2943.00000000000;2875.00000000000;2954.00000000000;3028.00000000000;3060.00000000000;3003.00000000000;2853.00000000000;2660.00000000000;2453.00000000000;2257.00000000000;2104.00000000000;1898.00000000000;1782.00000000000;1835.00000000000;1917.00000000000;1863.00000000000;1760.00000000000;1694.00000000000;1702.00000000000;1745.00000000000;1844.00000000000;1771.00000000000;1722.00000000000;1714.00000000000;1714.00000000000;1797.00000000000;1812.00000000000;1823.00000000000;1770.00000000000;1748.00000000000;1743.00000000000;1805.00000000000;1876.00000000000;1876.00000000000;1824.00000000000;1817.00000000000;1827.00000000000;1844.00000000000;1859.00000000000;1862.00000000000;1812.00000000000;1805.00000000000;1805.00000000000;1791.00000000000;1805.00000000000;1816.00000000000;1821.00000000000;1753.00000000000;1793.00000000000;1807.00000000000
Gyro Y : 2025.00000000000;2041.00000000000;2011.00000000000;2040.00000000000;2037.00000000000;2007.00000000000;2011.00000000000;2036.00000000000;2031.00000000000;1997.00000000000;2011.00000000000;2039.00000000000;2024.00000000000;2038.00000000000;2039.00000000000;2009.00000000000;2024.00000000000;2020.00000000000;2010.00000000000;2021.00000000000;2028.00000000000;2036.00000000000;2018.00000000000;2026.00000000000;2028.00000000000;2022.00000000000;2027.00000000000;2025.00000000000;2031.00000000000;2022.00000000000;2022.00000000000;2019.00000000000;2014.00000000000;2011.00000000000;2027.00000000000;2028.00000000000;2039.00000000000;2045.00000000000;2041.00000000000;2038.00000000000;2022.00000000000;1994.00000000000;1983.00000000000;1969.00000000000;1991.00000000000;2021.00000000000;1946.00000000000;1879.00000000000;1836.00000000000;1795.00000000000;1767.00000000000;1809.00000000000;1816.00000000000;1786.00000000000;1842.00000000000;1908.00000000000;1945.00000000000;1974.00000000000;2108.00000000000;2203.00000000000;2294.00000000000;2371.00000000000;2551.00000000000;2668.00000000000;2804.00000000000;2815.00000000000;2711.00000000000;2682.00000000000;2619.00000000000;2533.00000000000;2554.00000000000;2531.00000000000;2502.00000000000;2441.00000000000;2460.00000000000;2480.00000000000;2435.00000000000;2326.00000000000;2279.00000000000;2412.00000000000;2520.00000000000;2424.00000000000;2413.00000000000;2441.00000000000;2433.00000000000;2505.00000000000;2591.00000000000;2618.00000000000;2486.00000000000;2038.00000000000;1661.00000000000;2011.00000000000;1864.00000000000;1894.00000000000;1936.00000000000;1923.00000000000;1915.00000000000;1925.00000000000;1888.00000000000;1872.00000000000;1833.00000000000;1865.00000000000;1852.00000000000;1827.00000000000;1809.00000000000;1770.00000000000;1788.00000000000;1824.00000000000;1850.00000000000;1836.00000000000;1786.00000000000;1782.00000000000;1794.00000000000;1843.00000000000;1911.00000000000;1862.00000000000;1857.00000000000;1899.00000000000;1930.00000000000;1923.00000000000;1949.00000000000;1928.00000000000;1977.00000000000;1975.00000000000;2004.00000000000;1998.00000000000;1994.00000000000;1998.00000000000;2012.00000000000;2014.00000000000;2005.00000000000;2009.00000000000;2027.00000000000;2004.00000000000;2038.00000000000;2008.00000000000;2007.00000000000;2016.00000000000;2003.00000000000;2015.00000000000;1989.00000000000;2008.00000000000;1999.00000000000;2005.00000000000;2010.00000000000;2019.00000000000;2017.00000000000;2025.00000000000;2051.00000000000;2052.00000000000
Gyro Z : 2683.00000000000;2654.00000000000;2671.00000000000;2662.00000000000;2668.00000000000;2657.00000000000;2668.00000000000;2658.00000000000;2671.00000000000;2662.00000000000;2639.00000000000;2657.00000000000;2656.00000000000;2682.00000000000;2679.00000000000;2651.00000000000;2669.00000000000;2680.00000000000;2665.00000000000;2659.00000000000;2672.00000000000;2654.00000000000;2672.00000000000;2671.00000000000;2684.00000000000;2674.00000000000;2669.00000000000;2671.00000000000;2677.00000000000;2684.00000000000;2662.00000000000;2677.00000000000;2682.00000000000;2705.00000000000;2707.00000000000;2729.00000000000;2650.00000000000;2656.00000000000;2687.00000000000;2717.00000000000;2695.00000000000;2591.00000000000;2468.00000000000;2343.00000000000;2355.00000000000;2289.00000000000;2064.00000000000;1978.00000000000;1880.00000000000;1904.00000000000;1849.00000000000;1761.00000000000;1762.00000000000;1669.00000000000;1655.00000000000;1585.00000000000;1558.00000000000;1515.00000000000;1509.00000000000;1471.00000000000;1428.00000000000;1397.00000000000;1428.00000000000;1524.00000000000;1650.00000000000;1703.00000000000;1748.00000000000;1808.00000000000;1697.00000000000;1805.00000000000;1726.00000000000;1701.00000000000;1595.00000000000;1541.00000000000;1578.00000000000;1560.00000000000;1425.00000000000;1490.00000000000;1494.00000000000;1577.00000000000;1577.00000000000;1432.00000000000;1350.00000000000;1330.00000000000;1475.00000000000;1515.00000000000;1557.00000000000;1653.00000000000;1955.00000000000;1542.00000000000;1494.00000000000;2012.00000000000;1856.00000000000;1787.00000000000;1784.00000000000;1891.00000000000;1940.00000000000;1853.00000000000;1834.00000000000;1843.00000000000;1820.00000000000;1840.00000000000;1795.00000000000;1743.00000000000;1727.00000000000;1807.00000000000;1880.00000000000;1948.00000000000;2007.00000000000;2160.00000000000;2199.00000000000;2335.00000000000;2441.00000000000;2530.00000000000;2517.00000000000;2514.00000000000;2633.00000000000;2661.00000000000;2640.00000000000;2663.00000000000;2691.00000000000;2701.00000000000;2726.00000000000;2711.00000000000;2723.00000000000;2734.00000000000;2720.00000000000;2769.00000000000;2742.00000000000;2723.00000000000;2711.00000000000;2695.00000000000;2723.00000000000;2717.00000000000;2683.00000000000;2700.00000000000;2693.00000000000;2669.00000000000;2677.00000000000;2651.00000000000;2642.00000000000;2653.00000000000;2647.00000000000;2643.00000000000;2649.00000000000;2649.00000000000;2647.00000000000;2652.00000000000;2667.00000000000;2699.00000000000
