COMMAND 3 SAMPLE 1
Accel X : 1742.00000000000;1741.00000000000;1744.00000000000;1754.00000000000;1746.00000000000;1727.00000000000;1731.00000000000;1738.00000000000;1754.00000000000;1741.00000000000;1732.00000000000;1740.00000000000;1687.00000000000;1726.00000000000;1741.00000000000;1722.00000000000;1728.00000000000;1748.00000000000;1756.00000000000;1776.00000000000;1774.00000000000;1784.00000000000;1760.00000000000;1821.00000000000;1891.00000000000;1980.00000000000;2092.00000000000;2162.00000000000;2216.00000000000;2273.00000000000;2350.00000000000;2503.00000000000;2709.00000000000;2821.00000000000;2861.00000000000;3019.00000000000;3251.00000000000;3469.00000000000;3440.00000000000;3344.00000000000;3329.00000000000;3209.00000000000;3081.00000000000;3101.00000000000;3121.00000000000;3147.00000000000;3023.00000000000;2944.00000000000;2944.00000000000;2914.00000000000;2709.00000000000;2530.00000000000;2501.00000000000;2391.00000000000;2234.00000000000;2071.00000000000;1910.00000000000;1758.00000000000;1658.00000000000;1540.00000000000;1395.00000000000;1326.00000000000;1240.00000000000;1255.00000000000;1184.00000000000;1243.00000000000;1208.00000000000;1173.00000000000;1274.00000000000;1298.00000000000;1358.00000000000;1435.00000000000;1487.00000000000;1588.00000000000;1634.00000000000;1628.00000000000;1640.00000000000;1674.00000000000;1681.00000000000;1686.00000000000;1697.00000000000;1701.00000000000;1719.00000000000;1750.00000000000;1768.00000000000;1807.00000000000;1777.00000000000;1892.00000000000;2030.00000000000;2188.00000000000;2228.00000000000;2199.00000000000;2240.00000000000;2266.00000000000;2361.00000000000;2389.00000000000;2205.00000000000;1991.00000000000;2071.00000000000;2180.00000000000;2044.00000000000;1748.00000000000;1714.00000000000;1693.00000000000;1551.00000000000;1493.00000000000;1542.00000000000;1727.00000000000;1642.00000000000;1469.00000000000;1440.00000000000;1481.00000000000;1529.00000000000;1639.00000000000;1575.00000000000;1618.00000000000;1677.00000000000;1699.00000000000;1701.00000000000;1778.00000000000;1760.00000000000;1779.00000000000;1754.00000000000;1771.00000000000;1755.00000000000;1814.00000000000;1790.00000000000;1743.00000000000;1792.00000000000;1816.00000000000;1788.00000000000;1773.00000000000;1738.00000000000;1744.00000000000;1787.00000000000;1840.00000000000;1800.00000000000;1773.00000000000;1764.00000000000;1781.00000000000;1829.00000000000;1794.00000000000;1789.00000000000;1785.00000000000;1807.00000000000;1793.00000000000;1792.00000000000;1822.00000000000;1808.00000000000;1791.00000000000
Accel Y : 2061.00000000000;2089.00000000000;2069.00000000000;2055.00000000000;2064.00000000000;2075.00000000000;2070.00000000000;2064.00000000000;2055.00000000000;2079.00000000000;2072.00000000000;2074.00000000000;2052.00000000000;2083.00000000000;2063.00000000000;2066.00000000000;2062.00000000000;2073.00000000000;2089.00000000000;2065.00000000000;2084.00000000000;2068.00000000000;2065.00000000000;2071.00000000000;2075.00000000000;2046.00000000000;2093.00000000000;2083.00000000000;2064.00000000000;2083.00000000000;2093.00000000000;2035.00000000000;2034.00000000000;2015.00000000000;1974.00000000000;1922.00000000000;1838.00000000000;1744.00000000000;1725.00000000000;1671.00000000000;1703.00000000000;1656.00000000000;1664.00000000000;1626.00000000000;1623.00000000000;1592.00000000000;1677.00000000000;1686.00000000000;1720.00000000000;1758.00000000000;1768.00000000000;1840.00000000000;1872.00000000000;1940.00000000000;1951.00000000000;1948.00000000000;1958.00000000000;1864.00000000000;1850.00000000000;1869.00000000000;1859.00000000000;1830.00000000000;1823.00000000000;1830.00000000000;1849.00000000000;1701.00000000000;1692.00000000000;1658.00000000000;1609.00000000000;1536.00000000000;1499.00000000000;1465.00000000000;1452.00000000000;1378.00000000000;1365.00000000000;1319.00000000000;1284.00000000000;1221.00000000000;1241.00000000000;1190.00000000000;1172.00000000000;1195.00000000000;1180.00000000000;1199.00000000000;1194.00000000000;1271.00000000000;1297.00000000000;1289.00000000000;1268.00000000000;1306.00000000000;1267.00000000000;1286.00000000000;1277.00000000000;1240.00000000000;1282.00000000000;1464.00000000000;1440.00000000000;1484.00000000000;1436.00000000000;1695.00000000000;1739.00000000000;1801.00000000000;1806.00000000000;1803.00000000000;1949.00000000000;1928.00000000000;1935.00000000000;2070.00000000000;2067.00000000000;1989.00000000000;2012.00000000000;2107.00000000000;2072.00000000000;2117.00000000000;2107.00000000000;2144.00000000000;2101.00000000000;2143.00000000000;2110.00000000000;2094.00000000000;2098.00000000000;2087.00000000000;2116.00000000000;2098.00000000000;2100.00000000000;2057.00000000000;2056.00000000000;2088.00000000000;2054.00000000000;2064.00000000000;2026.00000000000;2007.00000000000;2045.00000000000;2008.00000000000;2006.00000000000;1996.00000000000;1992.00000000000;1985.00000000000;1992.00000000000;1981.00000000000;1980.00000000000;1999.00000000000;1983.00000000000;1954.00000000000;1949.00000000000;1991.00000000000;1984.00000000000;1983.00000000000;1983.00000000000;1977.00000000000
Accel Z : 2659.00000000000;2646.00000000000;2658.00000000000;2646.00000000000;2652.00000000000;2651.00000000000;2647.00000000000;2635.00000000000;2637.00000000000;2645.00000000000;2630.00000000000;2632.00000000000;2643.00000000000;2634.00000000000;2656.00000000000;2662.00000000000;2619.00000000000;2640.00000000000;2640.00000000000;2639.00000000000;2646.00000000000;2633.00000000000;2604.00000000000;2618.00000000000;2587.00000000000;2622.00000000000;2616.00000000000;2567.00000000000;2571.00000000000;2522.00000000000;2432.00000000000;2375.00000000000;2290.00000000000;2080.00000000000;1836.00000000000;1503.00000000000;1242.00000000000;1066.00000000000;920.000000000000;723.000000000000;644.000000000000;629.000000000000;632.000000000000;436.000000000000;359.000000000000;323.000000000000;292.000000000000;326.000000000000;415.000000000000;454.000000000000;561.000000000000;692.000000000000;807.000000000000;1009.00000000000;1115.00000000000;1328.00000000000;1537.00000000000;1713.00000000000;1897.00000000000;2056.00000000000;2118.00000000000;2281.00000000000;2360.00000000000;2389.00000000000;2467.00000000000;2578.00000000000;2583.00000000000;2576.00000000000;2653.00000000000;2597.00000000000;2587.00000000000;2455.00000000000;2393.00000000000;2329.00000000000;2254.00000000000;2222.00000000000;2126.00000000000;2041.00000000000;1994.00000000000;1918.00000000000;1891.00000000000;1779.00000000000;1775.00000000000;1723.00000000000;1696.00000000000;1649.00000000000;1573.00000000000;1532.00000000000;1465.00000000000;1576.00000000000;1485.00000000000;1394.00000000000;1268.00000000000;1291.00000000000;1611.00000000000;1671.00000000000;1656.00000000000;1679.00000000000;2026.00000000000;2363.00000000000;2371.00000000000;2316.00000000000;2313.00000000000;2540.00000000000;2661.00000000000;2669.00000000000;2803.00000000000;2882.00000000000;2922.00000000000;2890.00000000000;2986.00000000000;3030.00000000000;3041.00000000000;3083.00000000000;3063.00000000000;3113.00000000000;3067.00000000000;2999.00000000000;2923.00000000000;2903.00000000000;2883.00000000000;2885.00000000000;2845.00000000000;2792.00000000000;2766.00000000000;2736.00000000000;2725.00000000000;2723.00000000000;2704.00000000000;2650.00000000000;2622.00000000000;2624.00000000000;2597.00000000000;2610.00000000000;2612.00000000000;2611.00000000000;2600.00000000000;2596.00000000000;2631.00000000000;2648.00000000000;2642.00000000000;2636.00000000000;2623.00000000000;2626.00000000000;2660.00000000000;2646.00000000000;2647.00000000000;2680.00000000000;2667.00000000000;2634.00000000000
Gyro X : 1742.00000000000;1741.00000000000;1744.00000000000;1754.00000000000;1746.00000000000;1727.00000000000;1731.00000000000;1738.00000000000;1754.00000000000;1741.00000000000;1732.00000000000;1740.00000000000;1687.00000000000;1726.00000000000;1741.00000000000;1722.00000000000;1728.00000000000;1748.00000000000;1756.00000000000;1776.00000000000;1774.00000000000;1784.00000000000;1760.00000000000;1821.00000000000;1891.00000000000;1980.00000000000;2092.00000000000;2162.00000000000;2216.00000000000;2273.00000000000;2350.00000000000;2503.00000000000;2709.00000000000;2821.00000000000;2861.00000000000;3019.00000000000;3251.00000000000;3469.00000000000;3440.00000000000;3344.00000000000;3329.00000000000;3209.00000000000;3081.00000000000;3101.00000000000;3121.00000000000;3147.00000000000;3023.00000000000;2944.00000000000;2944.00000000000;2914.00000000000;2709.00000000000;2530.00000000000;2501.00000000000;2391.00000000000;2234.00000000000;2071.00000000000;1910.00000000000;1758.00000000000;1658.00000000000;1540.00000000000;1395.00000000000;1326.00000000000;1240.00000000000;1255.00000000000;1184.00000000000;1243.00000000000;1208.00000000000;1173.00000000000;1274.00000000000;1298.00000000000;1358.00000000000;1435.00000000000;1487.00000000000;1588.00000000000;1634.00000000000;1628.00000000000;1640.00000000000;1674.00000000000;1681.00000000000;1686.00000000000;1697.00000000000;1701.00000000000;1719.00000000000;1750.00000000000;1768.00000000000;1807.00000000000;1777.00000000000;1892.00000000000;2030.00000000000;2188.00000000000;2228.00000000000;2199.00000000000;2240.00000000000;2266.00000000000;2361.00000000000;2389.00000000000;2205.00000000000;1991.00000000000;2071.00000000000;2180.00000000000;2044.00000000000;1748.00000000000;1714.00000000000;1693.00000000000;1551.00000000000;1493.00000000000;1542.00000000000;1727.00000000000;1642.00000000000;1469.00000000000;1440.00000000000;1481.00000000000;1529.00000000000;1639.00000000000;1575.00000000000;1618.00000000000;1677.00000000000;1699.00000000000;1701.00000000000;1778.00000000000;1760.00000000000;1779.00000000000;1754.00000000000;1771.00000000000;1755.00000000000;1814.00000000000;1790.00000000000;1743.00000000000;1792.00000000000;1816.00000000000;1788.00000000000;1773.00000000000;1738.00000000000;1744.00000000000;1787.00000000000;1840.00000000000;1800.00000000000;1773.00000000000;1764.00000000000;1781.00000000000;1829.00000000000;1794.00000000000;1789.00000000000;1785.00000000000;1807.00000000000;1793.00000000000;1792.00000000000;1822.00000000000;1808.00000000000;1791.00000000000
Gyro Y : 2061.00000000000;2089.00000000000;2069.00000000000;2055.00000000000;2064.00000000000;2075.00000000000;2070.00000000000;2064.00000000000;2055.00000000000;2079.00000000000;2072.00000000000;2074.00000000000;2052.00000000000;2083.00000000000;2063.00000000000;2066.00000000000;2062.00000000000;2073.00000000000;2089.00000000000;2065.00000000000;2084.00000000000;2068.00000000000;2065.00000000000;2071.00000000000;2075.00000000000;2046.00000000000;2093.00000000000;2083.00000000000;2064.00000000000;2083.00000000000;2093.00000000000;2035.00000000000;2034.00000000000;2015.00000000000;1974.00000000000;1922.00000000000;1838.00000000000;1744.00000000000;1725.00000000000;1671.00000000000;1703.00000000000;1656.00000000000;1664.00000000000;1626.00000000000;1623.00000000000;1592.00000000000;1677.00000000000;1686.00000000000;1720.00000000000;1758.00000000000;1768.00000000000;1840.00000000000;1872.00000000000;1940.00000000000;1951.00000000000;1948.00000000000;1958.00000000000;1864.00000000000;1850.00000000000;1869.00000000000;1859.00000000000;1830.00000000000;1823.00000000000;1830.00000000000;1849.00000000000;1701.00000000000;1692.00000000000;1658.00000000000;1609.00000000000;1536.00000000000;1499.00000000000;1465.00000000000;1452.00000000000;1378.00000000000;1365.00000000000;1319.00000000000;1284.00000000000;1221.00000000000;1241.00000000000;1190.00000000000;1172.00000000000;1195.00000000000;1180.00000000000;1199.00000000000;1194.00000000000;1271.00000000000;1297.00000000000;1289.00000000000;1268.00000000000;1306.00000000000;1267.00000000000;1286.00000000000;1277.00000000000;1240.00000000000;1282.00000000000;1464.00000000000;1440.00000000000;1484.00000000000;1436.00000000000;1695.00000000000;1739.00000000000;1801.00000000000;1806.00000000000;1803.00000000000;1949.00000000000;1928.00000000000;1935.00000000000;2070.00000000000;2067.00000000000;1989.00000000000;2012.00000000000;2107.00000000000;2072.00000000000;2117.00000000000;2107.00000000000;2144.00000000000;2101.00000000000;2143.00000000000;2110.00000000000;2094.00000000000;2098.00000000000;2087.00000000000;2116.00000000000;2098.00000000000;2100.00000000000;2057.00000000000;2056.00000000000;2088.00000000000;2054.00000000000;2064.00000000000;2026.00000000000;2007.00000000000;2045.00000000000;2008.00000000000;2006.00000000000;1996.00000000000;1992.00000000000;1985.00000000000;1992.00000000000;1981.00000000000;1980.00000000000;1999.00000000000;1983.00000000000;1954.00000000000;1949.00000000000;1991.00000000000;1984.00000000000;1983.00000000000;1983.00000000000;1977.00000000000
Gyro Z : 2659.00000000000;2646.00000000000;2658.00000000000;2646.00000000000;2652.00000000000;2651.00000000000;2647.00000000000;2635.00000000000;2637.00000000000;2645.00000000000;2630.00000000000;2632.00000000000;2643.00000000000;2634.00000000000;2656.00000000000;2662.00000000000;2619.00000000000;2640.00000000000;2640.00000000000;2639.00000000000;2646.00000000000;2633.00000000000;2604.00000000000;2618.00000000000;2587.00000000000;2622.00000000000;2616.00000000000;2567.00000000000;2571.00000000000;2522.00000000000;2432.00000000000;2375.00000000000;2290.00000000000;2080.00000000000;1836.00000000000;1503.00000000000;1242.00000000000;1066.00000000000;920.000000000000;723.000000000000;644.000000000000;629.000000000000;632.000000000000;436.000000000000;359.000000000000;323.000000000000;292.000000000000;326.000000000000;415.000000000000;454.000000000000;561.000000000000;692.000000000000;807.000000000000;1009.00000000000;1115.00000000000;1328.00000000000;1537.00000000000;1713.00000000000;1897.00000000000;2056.00000000000;2118.00000000000;2281.00000000000;2360.00000000000;2389.00000000000;2467.00000000000;2578.00000000000;2583.00000000000;2576.00000000000;2653.00000000000;2597.00000000000;2587.00000000000;2455.00000000000;2393.00000000000;2329.00000000000;2254.00000000000;2222.00000000000;2126.00000000000;2041.00000000000;1994.00000000000;1918.00000000000;1891.00000000000;1779.00000000000;1775.00000000000;1723.00000000000;1696.00000000000;1649.00000000000;1573.00000000000;1532.00000000000;1465.00000000000;1576.00000000000;1485.00000000000;1394.00000000000;1268.00000000000;1291.00000000000;1611.00000000000;1671.00000000000;1656.00000000000;1679.00000000000;2026.00000000000;2363.00000000000;2371.00000000000;2316.00000000000;2313.00000000000;2540.00000000000;2661.00000000000;2669.00000000000;2803.00000000000;2882.00000000000;2922.00000000000;2890.00000000000;2986.00000000000;3030.00000000000;3041.00000000000;3083.00000000000;3063.00000000000;3113.00000000000;3067.00000000000;2999.00000000000;2923.00000000000;2903.00000000000;2883.00000000000;2885.00000000000;2845.00000000000;2792.00000000000;2766.00000000000;2736.00000000000;2725.00000000000;2723.00000000000;2704.00000000000;2650.00000000000;2622.00000000000;2624.00000000000;2597.00000000000;2610.00000000000;2612.00000000000;2611.00000000000;2600.00000000000;2596.00000000000;2631.00000000000;2648.00000000000;2642.00000000000;2636.00000000000;2623.00000000000;2626.00000000000;2660.00000000000;2646.00000000000;2647.00000000000;2680.00000000000;2667.00000000000;2634.00000000000
