COMMAND 1 SAMPLE 1
Accel X : 1835.00000000000;1845.00000000000;1842.00000000000;1830.00000000000;1823.00000000000;1826.00000000000;1828.00000000000;1816.00000000000;1830.00000000000;1823.00000000000;1839.00000000000;1825.00000000000;1803.00000000000;1810.00000000000;1812.00000000000;1838.00000000000;1844.00000000000;1821.00000000000;1820.00000000000;1843.00000000000;1834.00000000000;1845.00000000000;1879.00000000000;1837.00000000000;1850.00000000000;1816.00000000000;1833.00000000000;1831.00000000000;1835.00000000000;1843.00000000000;1825.00000000000;1813.00000000000;1824.00000000000;1827.00000000000;1782.00000000000;1806.00000000000;1823.00000000000;1851.00000000000;1842.00000000000;1867.00000000000;1863.00000000000;1872.00000000000;1920.00000000000;2009.00000000000;2073.00000000000;2126.00000000000;2143.00000000000;2211.00000000000;2413.00000000000;2646.00000000000;2840.00000000000;3083.00000000000;3293.00000000000;3331.00000000000;3220.00000000000;3027.00000000000;2840.00000000000;2727.00000000000;2459.00000000000;2239.00000000000;2088.00000000000;1901.00000000000;1728.00000000000;1572.00000000000;1408.00000000000;1165.00000000000;848.000000000000;350.000000000000;18.0000000000000;18.0000000000000;19.0000000000000;21.0000000000000;21.0000000000000;217.000000000000;671.000000000000;698.000000000000;732.000000000000;896.000000000000;990.000000000000;1068.00000000000;1346.00000000000;1485.00000000000;1614.00000000000;1802.00000000000;2031.00000000000;2065.00000000000;2109.00000000000;2284.00000000000;2321.00000000000;2385.00000000000;2689.00000000000;3382.00000000000;3738.00000000000;2884.00000000000;2193.00000000000;3270.00000000000;3804.00000000000;3700.00000000000;3462.00000000000;3415.00000000000;3430.00000000000;3238.00000000000;2967.00000000000;2849.00000000000;2935.00000000000;2959.00000000000;2926.00000000000;2913.00000000000;2827.00000000000;2808.00000000000;2728.00000000000;2579.00000000000;2443.00000000000;2197.00000000000;2041.00000000000;1869.00000000000;1791.00000000000;1787.00000000000;1900.00000000000;1951.00000000000;1958.00000000000;1927.00000000000;1907.00000000000;1923.00000000000;1854.00000000000;1810.00000000000;1784.00000000000;1782.00000000000;1855.00000000000;1929.00000000000;1871.00000000000;1806.00000000000;1785.00000000000;1775.00000000000;1824.00000000000;1810.00000000000;1778.00000000000;1783.00000000000;1804.00000000000;1817.00000000000;1801.00000000000;1780.00000000000;1810.00000000000;1809.00000000000;1785.00000000000;1792.00000000000;1798.00000000000;1796.00000000000;1807.00000000000;1813.00000000000
Accel Y : 2022.00000000000;2021.00000000000;2030.00000000000;2022.00000000000;2024.00000000000;2034.00000000000;2015.00000000000;2039.00000000000;1999.00000000000;2016.00000000000;2019.00000000000;2018.00000000000;2018.00000000000;2016.00000000000;2012.00000000000;2017.00000000000;2025.00000000000;2010.00000000000;2036.00000000000;2029.00000000000;2018.00000000000;2022.00000000000;2018.00000000000;2014.00000000000;2020.00000000000;2017.00000000000;2026.00000000000;2031.00000000000;2036.00000000000;2038.00000000000;2017.00000000000;2030.00000000000;2032.00000000000;2025.00000000000;2035.00000000000;2029.00000000000;1990.00000000000;1989.00000000000;2014.00000000000;1998.00000000000;2016.00000000000;2023.00000000000;2035.00000000000;2010.00000000000;1985.00000000000;2031.00000000000;2000.00000000000;2004.00000000000;1983.00000000000;1950.00000000000;1895.00000000000;1942.00000000000;1899.00000000000;1799.00000000000;1747.00000000000;1772.00000000000;1786.00000000000;1777.00000000000;1740.00000000000;1709.00000000000;1677.00000000000;1681.00000000000;1763.00000000000;1902.00000000000;1951.00000000000;2082.00000000000;2167.00000000000;2271.00000000000;2202.00000000000;2198.00000000000;2329.00000000000;1989.00000000000;2022.00000000000;1973.00000000000;1830.00000000000;1811.00000000000;1779.00000000000;1737.00000000000;1738.00000000000;1732.00000000000;1754.00000000000;1733.00000000000;1694.00000000000;1797.00000000000;1897.00000000000;1893.00000000000;1980.00000000000;2205.00000000000;2248.00000000000;2213.00000000000;2190.00000000000;2377.00000000000;2340.00000000000;2071.00000000000;1740.00000000000;1863.00000000000;1921.00000000000;1749.00000000000;1896.00000000000;1893.00000000000;1892.00000000000;1924.00000000000;1967.00000000000;1985.00000000000;1963.00000000000;1963.00000000000;1974.00000000000;1930.00000000000;1939.00000000000;1947.00000000000;1958.00000000000;1964.00000000000;1942.00000000000;1962.00000000000;1945.00000000000;1958.00000000000;1966.00000000000;1969.00000000000;1945.00000000000;1947.00000000000;1964.00000000000;1979.00000000000;1973.00000000000;1975.00000000000;1966.00000000000;1986.00000000000;1971.00000000000;1962.00000000000;1966.00000000000;1963.00000000000;1975.00000000000;1974.00000000000;1972.00000000000;1956.00000000000;1994.00000000000;1991.00000000000;1979.00000000000;1966.00000000000;1960.00000000000;1976.00000000000;1988.00000000000;1977.00000000000;1967.00000000000;1982.00000000000;1968.00000000000;1995.00000000000;1964.00000000000;1969.00000000000;1941.00000000000;1983.00000000000
Accel Z : 2667.00000000000;2670.00000000000;2684.00000000000;2660.00000000000;2644.00000000000;2653.00000000000;2674.00000000000;2663.00000000000;2661.00000000000;2691.00000000000;2666.00000000000;2682.00000000000;2653.00000000000;2653.00000000000;2658.00000000000;2657.00000000000;2659.00000000000;2670.00000000000;2681.00000000000;2671.00000000000;2674.00000000000;2666.00000000000;2660.00000000000;2682.00000000000;2683.00000000000;2680.00000000000;2677.00000000000;2674.00000000000;2681.00000000000;2688.00000000000;2672.00000000000;2687.00000000000;2691.00000000000;2675.00000000000;2657.00000000000;2703.00000000000;2696.00000000000;2709.00000000000;2721.00000000000;2735.00000000000;2741.00000000000;2795.00000000000;2778.00000000000;2827.00000000000;2826.00000000000;2828.00000000000;2769.00000000000;2735.00000000000;2639.00000000000;2535.00000000000;2432.00000000000;2272.00000000000;2165.00000000000;2065.00000000000;2026.00000000000;1962.00000000000;1778.00000000000;1830.00000000000;1769.00000000000;1668.00000000000;1654.00000000000;1660.00000000000;1560.00000000000;1527.00000000000;1617.00000000000;1628.00000000000;1729.00000000000;2000.00000000000;2202.00000000000;2214.00000000000;1834.00000000000;1850.00000000000;1819.00000000000;1882.00000000000;1934.00000000000;1858.00000000000;1804.00000000000;1787.00000000000;1758.00000000000;1760.00000000000;1733.00000000000;1690.00000000000;1572.00000000000;1572.00000000000;1497.00000000000;1507.00000000000;1583.00000000000;1663.00000000000;1560.00000000000;1421.00000000000;1594.00000000000;1947.00000000000;2200.00000000000;1547.00000000000;1332.00000000000;1919.00000000000;2007.00000000000;2040.00000000000;1986.00000000000;1925.00000000000;1880.00000000000;1993.00000000000;2080.00000000000;2164.00000000000;2208.00000000000;2301.00000000000;2245.00000000000;2213.00000000000;2235.00000000000;2270.00000000000;2322.00000000000;2338.00000000000;2394.00000000000;2433.00000000000;2534.00000000000;2585.00000000000;2604.00000000000;2638.00000000000;2637.00000000000;2673.00000000000;2712.00000000000;2673.00000000000;2675.00000000000;2662.00000000000;2654.00000000000;2666.00000000000;2676.00000000000;2660.00000000000;2649.00000000000;2725.00000000000;2662.00000000000;2663.00000000000;2647.00000000000;2650.00000000000;2659.00000000000;2667.00000000000;2663.00000000000;2662.00000000000;2658.00000000000;2656.00000000000;2660.00000000000;2652.00000000000;2668.00000000000;2662.00000000000;2646.00000000000;2653.00000000000;2662.00000000000;2651.00000000000;2647.00000000000;2654.00000000000
Gyro X : 1835.00000000000;1845.00000000000;1842.00000000000;1830.00000000000;1823.00000000000;1826.00000000000;1828.00000000000;1816.00000000000;1830.00000000000;1823.00000000000;1839.00000000000;1825.00000000000;1803.00000000000;1810.00000000000;1812.00000000000;1838.00000000000;1844.00000000000;1821.00000000000;1820.00000000000;1843.00000000000;1834.00000000000;1845.00000000000;1879.00000000000;1837.00000000000;1850.00000000000;1816.00000000000;1833.00000000000;1831.00000000000;1835.00000000000;1843.00000000000;1825.00000000000;1813.00000000000;1824.00000000000;1827.00000000000;1782.00000000000;1806.00000000000;1823.00000000000;1851.00000000000;1842.00000000000;1867.00000000000;1863.00000000000;1872.00000000000;1920.00000000000;2009.00000000000;2073.00000000000;2126.00000000000;2143.00000000000;2211.00000000000;2413.00000000000;2646.00000000000;2840.00000000000;3083.00000000000;3293.00000000000;3331.00000000000;3220.00000000000;3027.00000000000;2840.00000000000;2727.00000000000;2459.00000000000;2239.00000000000;2088.00000000000;1901.00000000000;1728.00000000000;1572.00000000000;1408.00000000000;1165.00000000000;848.000000000000;350.000000000000;18.0000000000000;18.0000000000000;19.0000000000000;21.0000000000000;21.0000000000000;217.000000000000;671.000000000000;698.000000000000;732.000000000000;896.000000000000;990.000000000000;1068.00000000000;1346.00000000000;1485.00000000000;1614.00000000000;1802.00000000000;2031.00000000000;2065.00000000000;2109.00000000000;2284.00000000000;2321.00000000000;2385.00000000000;2689.00000000000;3382.00000000000;3738.00000000000;2884.00000000000;2193.00000000000;3270.00000000000;3804.00000000000;3700.00000000000;3462.00000000000;3415.00000000000;3430.00000000000;3238.00000000000;2967.00000000000;2849.00000000000;2935.00000000000;2959.00000000000;2926.00000000000;2913.00000000000;2827.00000000000;2808.00000000000;2728.00000000000;2579.00000000000;2443.00000000000;2197.00000000000;2041.00000000000;1869.00000000000;1791.00000000000;1787.00000000000;1900.00000000000;1951.00000000000;1958.00000000000;1927.00000000000;1907.00000000000;1923.00000000000;1854.00000000000;1810.00000000000;1784.00000000000;1782.00000000000;1855.00000000000;1929.00000000000;1871.00000000000;1806.00000000000;1785.00000000000;1775.00000000000;1824.00000000000;1810.00000000000;1778.00000000000;1783.00000000000;1804.00000000000;1817.00000000000;1801.00000000000;1780.00000000000;1810.00000000000;1809.00000000000;1785.00000000000;1792.00000000000;1798.00000000000;1796.00000000000;1807.00000000000;1813.00000000000
Gyro Y : 2022.00000000000;2021.00000000000;2030.00000000000;2022.00000000000;2024.00000000000;2034.00000000000;2015.00000000000;2039.00000000000;1999.00000000000;2016.00000000000;2019.00000000000;2018.00000000000;2018.00000000000;2016.00000000000;2012.00000000000;2017.00000000000;2025.00000000000;2010.00000000000;2036.00000000000;2029.00000000000;2018.00000000000;2022.00000000000;2018.00000000000;2014.00000000000;2020.00000000000;2017.00000000000;2026.00000000000;2031.00000000000;2036.00000000000;2038.00000000000;2017.00000000000;2030.00000000000;2032.00000000000;2025.00000000000;2035.00000000000;2029.00000000000;1990.00000000000;1989.00000000000;2014.00000000000;1998.00000000000;2016.00000000000;2023.00000000000;2035.00000000000;2010.00000000000;1985.00000000000;2031.00000000000;2000.00000000000;2004.00000000000;1983.00000000000;1950.00000000000;1895.00000000000;1942.00000000000;1899.00000000000;1799.00000000000;1747.00000000000;1772.00000000000;1786.00000000000;1777.00000000000;1740.00000000000;1709.00000000000;1677.00000000000;1681.00000000000;1763.00000000000;1902.00000000000;1951.00000000000;2082.00000000000;2167.00000000000;2271.00000000000;2202.00000000000;2198.00000000000;2329.00000000000;1989.00000000000;2022.00000000000;1973.00000000000;1830.00000000000;1811.00000000000;1779.00000000000;1737.00000000000;1738.00000000000;1732.00000000000;1754.00000000000;1733.00000000000;1694.00000000000;1797.00000000000;1897.00000000000;1893.00000000000;1980.00000000000;2205.00000000000;2248.00000000000;2213.00000000000;2190.00000000000;2377.00000000000;2340.00000000000;2071.00000000000;1740.00000000000;1863.00000000000;1921.00000000000;1749.00000000000;1896.00000000000;1893.00000000000;1892.00000000000;1924.00000000000;1967.00000000000;1985.00000000000;1963.00000000000;1963.00000000000;1974.00000000000;1930.00000000000;1939.00000000000;1947.00000000000;1958.00000000000;1964.00000000000;1942.00000000000;1962.00000000000;1945.00000000000;1958.00000000000;1966.00000000000;1969.00000000000;1945.00000000000;1947.00000000000;1964.00000000000;1979.00000000000;1973.00000000000;1975.00000000000;1966.00000000000;1986.00000000000;1971.00000000000;1962.00000000000;1966.00000000000;1963.00000000000;1975.00000000000;1974.00000000000;1972.00000000000;1956.00000000000;1994.00000000000;1991.00000000000;1979.00000000000;1966.00000000000;1960.00000000000;1976.00000000000;1988.00000000000;1977.00000000000;1967.00000000000;1982.00000000000;1968.00000000000;1995.00000000000;1964.00000000000;1969.00000000000;1941.00000000000;1983.00000000000
Gyro Z : 2667.00000000000;2670.00000000000;2684.00000000000;2660.00000000000;2644.00000000000;2653.00000000000;2674.00000000000;2663.00000000000;2661.00000000000;2691.00000000000;2666.00000000000;2682.00000000000;2653.00000000000;2653.00000000000;2658.00000000000;2657.00000000000;2659.00000000000;2670.00000000000;2681.00000000000;2671.00000000000;2674.00000000000;2666.00000000000;2660.00000000000;2682.00000000000;2683.00000000000;2680.00000000000;2677.00000000000;2674.00000000000;2681.00000000000;2688.00000000000;2672.00000000000;2687.00000000000;2691.00000000000;2675.00000000000;2657.00000000000;2703.00000000000;2696.00000000000;2709.00000000000;2721.00000000000;2735.00000000000;2741.00000000000;2795.00000000000;2778.00000000000;2827.00000000000;2826.00000000000;2828.00000000000;2769.00000000000;2735.00000000000;2639.00000000000;2535.00000000000;2432.00000000000;2272.00000000000;2165.00000000000;2065.00000000000;2026.00000000000;1962.00000000000;1778.00000000000;1830.00000000000;1769.00000000000;1668.00000000000;1654.00000000000;1660.00000000000;1560.00000000000;1527.00000000000;1617.00000000000;1628.00000000000;1729.00000000000;2000.00000000000;2202.00000000000;2214.00000000000;1834.00000000000;1850.00000000000;1819.00000000000;1882.00000000000;1934.00000000000;1858.00000000000;1804.00000000000;1787.00000000000;1758.00000000000;1760.00000000000;1733.00000000000;1690.00000000000;1572.00000000000;1572.00000000000;1497.00000000000;1507.00000000000;1583.00000000000;1663.00000000000;1560.00000000000;1421.00000000000;1594.00000000000;1947.00000000000;2200.00000000000;1547.00000000000;1332.00000000000;1919.00000000000;2007.00000000000;2040.00000000000;1986.00000000000;1925.00000000000;1880.00000000000;1993.00000000000;2080.00000000000;2164.00000000000;2208.00000000000;2301.00000000000;2245.00000000000;2213.00000000000;2235.00000000000;2270.00000000000;2322.00000000000;2338.00000000000;2394.00000000000;2433.00000000000;2534.00000000000;2585.00000000000;2604.00000000000;2638.00000000000;2637.00000000000;2673.00000000000;2712.00000000000;2673.00000000000;2675.00000000000;2662.00000000000;2654.00000000000;2666.00000000000;2676.00000000000;2660.00000000000;2649.00000000000;2725.00000000000;2662.00000000000;2663.00000000000;2647.00000000000;2650.00000000000;2659.00000000000;2667.00000000000;2663.00000000000;2662.00000000000;2658.00000000000;2656.00000000000;2660.00000000000;2652.00000000000;2668.00000000000;2662.00000000000;2646.00000000000;2653.00000000000;2662.00000000000;2651.00000000000;2647.00000000000;2654.00000000000
