COMMAND 2 SAMPLE 1
Accel X : 1870.00000000000;1856.00000000000;1855.00000000000;1872.00000000000;1887.00000000000;1903.00000000000;1877.00000000000;1871.00000000000;1871.00000000000;1875.00000000000;1886.00000000000;1874.00000000000;1881.00000000000;1897.00000000000;1869.00000000000;1847.00000000000;1876.00000000000;1872.00000000000;1884.00000000000;1867.00000000000;1849.00000000000;1859.00000000000;1860.00000000000;1840.00000000000;1803.00000000000;1787.00000000000;1783.00000000000;1736.00000000000;1666.00000000000;1648.00000000000;1699.00000000000;1729.00000000000;1819.00000000000;1850.00000000000;1951.00000000000;2126.00000000000;2229.00000000000;2282.00000000000;2539.00000000000;2713.00000000000;2754.00000000000;2810.00000000000;2792.00000000000;2853.00000000000;2915.00000000000;2893.00000000000;2857.00000000000;2860.00000000000;2848.00000000000;2881.00000000000;2822.00000000000;2779.00000000000;2724.00000000000;2705.00000000000;2648.00000000000;2583.00000000000;2551.00000000000;2601.00000000000;2638.00000000000;2597.00000000000;2560.00000000000;2498.00000000000;2457.00000000000;2545.00000000000;2611.00000000000;2529.00000000000;2476.00000000000;2459.00000000000;2524.00000000000;2576.00000000000;2616.00000000000;2587.00000000000;2619.00000000000;2693.00000000000;2667.00000000000;2614.00000000000;2670.00000000000;2668.00000000000;2643.00000000000;2633.00000000000;2630.00000000000;2646.00000000000;2669.00000000000;2663.00000000000;2667.00000000000;2616.00000000000;2634.00000000000;2640.00000000000;2702.00000000000;2724.00000000000;2708.00000000000;2707.00000000000;2784.00000000000;2767.00000000000;2806.00000000000;2890.00000000000;2820.00000000000;2859.00000000000;2807.00000000000;2647.00000000000;2727.00000000000;2900.00000000000;3056.00000000000;2810.00000000000;2370.00000000000;2272.00000000000;2215.00000000000;2368.00000000000;2401.00000000000;2167.00000000000;1870.00000000000;1743.00000000000;1807.00000000000;1922.00000000000;1615.00000000000;1446.00000000000;1433.00000000000;1500.00000000000;1633.00000000000;1601.00000000000;1611.00000000000;1620.00000000000;1658.00000000000;1747.00000000000;1747.00000000000;1707.00000000000;1744.00000000000;1755.00000000000;1831.00000000000;1838.00000000000;1821.00000000000;1808.00000000000;1820.00000000000;1824.00000000000;1831.00000000000;1856.00000000000;1834.00000000000;1855.00000000000;1831.00000000000;1841.00000000000;1890.00000000000;1891.00000000000;1870.00000000000;1832.00000000000;1861.00000000000;1871.00000000000;1901.00000000000;1866.00000000000;1840.00000000000;1876.00000000000
Accel Y : 2070.00000000000;2051.00000000000;2057.00000000000;2086.00000000000;2054.00000000000;2075.00000000000;2070.00000000000;2064.00000000000;2055.00000000000;2070.00000000000;2073.00000000000;2057.00000000000;2069.00000000000;2072.00000000000;2050.00000000000;2053.00000000000;2059.00000000000;2047.00000000000;2084.00000000000;2067.00000000000;2051.00000000000;2080.00000000000;2063.00000000000;2066.00000000000;2050.00000000000;2089.00000000000;2095.00000000000;2095.00000000000;2086.00000000000;2151.00000000000;2171.00000000000;2167.00000000000;2143.00000000000;2193.00000000000;2222.00000000000;2243.00000000000;2232.00000000000;2275.00000000000;2316.00000000000;2301.00000000000;2299.00000000000;2338.00000000000;2301.00000000000;2308.00000000000;2296.00000000000;2346.00000000000;2391.00000000000;2395.00000000000;2405.00000000000;2421.00000000000;2421.00000000000;2421.00000000000;2471.00000000000;2456.00000000000;2492.00000000000;2487.00000000000;2477.00000000000;2441.00000000000;2433.00000000000;2450.00000000000;2417.00000000000;2337.00000000000;2228.00000000000;2186.00000000000;2159.00000000000;2138.00000000000;2116.00000000000;2075.00000000000;2051.00000000000;2047.00000000000;2030.00000000000;2008.00000000000;2019.00000000000;2021.00000000000;2077.00000000000;2117.00000000000;2129.00000000000;2134.00000000000;2184.00000000000;2182.00000000000;2201.00000000000;2243.00000000000;2238.00000000000;2280.00000000000;2314.00000000000;2323.00000000000;2345.00000000000;2357.00000000000;2424.00000000000;2384.00000000000;2378.00000000000;2458.00000000000;2396.00000000000;2428.00000000000;2378.00000000000;2383.00000000000;2426.00000000000;2424.00000000000;2344.00000000000;2329.00000000000;2333.00000000000;2335.00000000000;2346.00000000000;2290.00000000000;2289.00000000000;2300.00000000000;2265.00000000000;2331.00000000000;2322.00000000000;2302.00000000000;2250.00000000000;2238.00000000000;2252.00000000000;2283.00000000000;2222.00000000000;2215.00000000000;2213.00000000000;2204.00000000000;2163.00000000000;2168.00000000000;2127.00000000000;2148.00000000000;2133.00000000000;2166.00000000000;2137.00000000000;2134.00000000000;2156.00000000000;2093.00000000000;2134.00000000000;2109.00000000000;2063.00000000000;2092.00000000000;2099.00000000000;2052.00000000000;2079.00000000000;2083.00000000000;2078.00000000000;2099.00000000000;2090.00000000000;2071.00000000000;2107.00000000000;2094.00000000000;2087.00000000000;2084.00000000000;2111.00000000000;2077.00000000000;2086.00000000000;2091.00000000000;2093.00000000000;2078.00000000000
Accel Z : 2676.00000000000;2671.00000000000;2672.00000000000;2679.00000000000;2678.00000000000;2658.00000000000;2656.00000000000;2659.00000000000;2669.00000000000;2669.00000000000;2687.00000000000;2667.00000000000;2667.00000000000;2673.00000000000;2671.00000000000;2665.00000000000;2669.00000000000;2661.00000000000;2672.00000000000;2665.00000000000;2660.00000000000;2666.00000000000;2697.00000000000;2688.00000000000;2686.00000000000;2701.00000000000;2713.00000000000;2720.00000000000;2740.00000000000;2757.00000000000;2801.00000000000;2795.00000000000;2797.00000000000;2874.00000000000;2847.00000000000;2849.00000000000;2836.00000000000;2791.00000000000;2720.00000000000;2678.00000000000;2645.00000000000;2540.00000000000;2451.00000000000;2313.00000000000;2232.00000000000;2115.00000000000;2016.00000000000;1920.00000000000;1853.00000000000;1749.00000000000;1694.00000000000;1586.00000000000;1548.00000000000;1527.00000000000;1413.00000000000;1341.00000000000;1268.00000000000;1209.00000000000;1090.00000000000;975.000000000000;844.000000000000;681.000000000000;536.000000000000;464.000000000000;363.000000000000;283.000000000000;240.000000000000;222.000000000000;164.000000000000;204.000000000000;188.000000000000;198.000000000000;231.000000000000;307.000000000000;381.000000000000;452.000000000000;538.000000000000;603.000000000000;651.000000000000;674.000000000000;757.000000000000;752.000000000000;807.000000000000;825.000000000000;871.000000000000;873.000000000000;895.000000000000;927.000000000000;1034.00000000000;1106.00000000000;1097.00000000000;1130.00000000000;1241.00000000000;1285.00000000000;1362.00000000000;1490.00000000000;1631.00000000000;1732.00000000000;1779.00000000000;1826.00000000000;1995.00000000000;2092.00000000000;2163.00000000000;2143.00000000000;2270.00000000000;2421.00000000000;2484.00000000000;2624.00000000000;2690.00000000000;2705.00000000000;2673.00000000000;2678.00000000000;2772.00000000000;2820.00000000000;2761.00000000000;2765.00000000000;2772.00000000000;2790.00000000000;2788.00000000000;2758.00000000000;2734.00000000000;2710.00000000000;2738.00000000000;2699.00000000000;2675.00000000000;2657.00000000000;2677.00000000000;2676.00000000000;2660.00000000000;2654.00000000000;2645.00000000000;2654.00000000000;2646.00000000000;2650.00000000000;2677.00000000000;2655.00000000000;2663.00000000000;2688.00000000000;2651.00000000000;2640.00000000000;2698.00000000000;2698.00000000000;2664.00000000000;2660.00000000000;2697.00000000000;2694.00000000000;2675.00000000000;2681.00000000000;2655.00000000000;2668.00000000000
Gyro X : 1870.00000000000;1856.00000000000;1855.00000000000;1872.00000000000;1887.00000000000;1903.00000000000;1877.00000000000;1871.00000000000;1871.00000000000;1875.00000000000;1886.00000000000;1874.00000000000;1881.00000000000;1897.00000000000;1869.00000000000;1847.00000000000;1876.00000000000;1872.00000000000;1884.00000000000;1867.00000000000;1849.00000000000;1859.00000000000;1860.00000000000;1840.00000000000;1803.00000000000;1787.00000000000;1783.00000000000;1736.00000000000;1666.00000000000;1648.00000000000;1699.00000000000;1729.00000000000;1819.00000000000;1850.00000000000;1951.00000000000;2126.00000000000;2229.00000000000;2282.00000000000;2539.00000000000;2713.00000000000;2754.00000000000;2810.00000000000;2792.00000000000;2853.00000000000;2915.00000000000;2893.00000000000;2857.00000000000;2860.00000000000;2848.00000000000;2881.00000000000;2822.00000000000;2779.00000000000;2724.00000000000;2705.00000000000;2648.00000000000;2583.00000000000;2551.00000000000;2601.00000000000;2638.00000000000;2597.00000000000;2560.00000000000;2498.00000000000;2457.00000000000;2545.00000000000;2611.00000000000;2529.00000000000;2476.00000000000;2459.00000000000;2524.00000000000;2576.00000000000;2616.00000000000;2587.00000000000;2619.00000000000;2693.00000000000;2667.00000000000;2614.00000000000;2670.00000000000;2668.00000000000;2643.00000000000;2633.00000000000;2630.00000000000;2646.00000000000;2669.00000000000;2663.00000000000;2667.00000000000;2616.00000000000;2634.00000000000;2640.00000000000;2702.00000000000;2724.00000000000;2708.00000000000;2707.00000000000;2784.00000000000;2767.00000000000;2806.00000000000;2890.00000000000;2820.00000000000;2859.00000000000;2807.00000000000;2647.00000000000;2727.00000000000;2900.00000000000;3056.00000000000;2810.00000000000;2370.00000000000;2272.00000000000;2215.00000000000;2368.00000000000;2401.00000000000;2167.00000000000;1870.00000000000;1743.00000000000;1807.00000000000;1922.00000000000;1615.00000000000;1446.00000000000;1433.00000000000;1500.00000000000;1633.00000000000;1601.00000000000;1611.00000000000;1620.00000000000;1658.00000000000;1747.00000000000;1747.00000000000;1707.00000000000;1744.00000000000;1755.00000000000;1831.00000000000;1838.00000000000;1821.00000000000;1808.00000000000;1820.00000000000;1824.00000000000;1831.00000000000;1856.00000000000;1834.00000000000;1855.00000000000;1831.00000000000;1841.00000000000;1890.00000000000;1891.00000000000;1870.00000000000;1832.00000000000;1861.00000000000;1871.00000000000;1901.00000000000;1866.00000000000;1840.00000000000;1876.00000000000
Gyro Y : 2070.00000000000;2051.00000000000;2057.00000000000;2086.00000000000;2054.00000000000;2075.00000000000;2070.00000000000;2064.00000000000;2055.00000000000;2070.00000000000;2073.00000000000;2057.00000000000;2069.00000000000;2072.00000000000;2050.00000000000;2053.00000000000;2059.00000000000;2047.00000000000;2084.00000000000;2067.00000000000;2051.00000000000;2080.00000000000;2063.00000000000;2066.00000000000;2050.00000000000;2089.00000000000;2095.00000000000;2095.00000000000;2086.00000000000;2151.00000000000;2171.00000000000;2167.00000000000;2143.00000000000;2193.00000000000;2222.00000000000;2243.00000000000;2232.00000000000;2275.00000000000;2316.00000000000;2301.00000000000;2299.00000000000;2338.00000000000;2301.00000000000;2308.00000000000;2296.00000000000;2346.00000000000;2391.00000000000;2395.00000000000;2405.00000000000;2421.00000000000;2421.00000000000;2421.00000000000;2471.00000000000;2456.00000000000;2492.00000000000;2487.00000000000;2477.00000000000;2441.00000000000;2433.00000000000;2450.00000000000;2417.00000000000;2337.00000000000;2228.00000000000;2186.00000000000;2159.00000000000;2138.00000000000;2116.00000000000;2075.00000000000;2051.00000000000;2047.00000000000;2030.00000000000;2008.00000000000;2019.00000000000;2021.00000000000;2077.00000000000;2117.00000000000;2129.00000000000;2134.00000000000;2184.00000000000;2182.00000000000;2201.00000000000;2243.00000000000;2238.00000000000;2280.00000000000;2314.00000000000;2323.00000000000;2345.00000000000;2357.00000000000;2424.00000000000;2384.00000000000;2378.00000000000;2458.00000000000;2396.00000000000;2428.00000000000;2378.00000000000;2383.00000000000;2426.00000000000;2424.00000000000;2344.00000000000;2329.00000000000;2333.00000000000;2335.00000000000;2346.00000000000;2290.00000000000;2289.00000000000;2300.00000000000;2265.00000000000;2331.00000000000;2322.00000000000;2302.00000000000;2250.00000000000;2238.00000000000;2252.00000000000;2283.00000000000;2222.00000000000;2215.00000000000;2213.00000000000;2204.00000000000;2163.00000000000;2168.00000000000;2127.00000000000;2148.00000000000;2133.00000000000;2166.00000000000;2137.00000000000;2134.00000000000;2156.00000000000;2093.00000000000;2134.00000000000;2109.00000000000;2063.00000000000;2092.00000000000;2099.00000000000;2052.00000000000;2079.00000000000;2083.00000000000;2078.00000000000;2099.00000000000;2090.00000000000;2071.00000000000;2107.00000000000;2094.00000000000;2087.00000000000;2084.00000000000;2111.00000000000;2077.00000000000;2086.00000000000;2091.00000000000;2093.00000000000;2078.00000000000
Gyro Z : 2676.00000000000;2671.00000000000;2672.00000000000;2679.00000000000;2678.00000000000;2658.00000000000;2656.00000000000;2659.00000000000;2669.00000000000;2669.00000000000;2687.00000000000;2667.00000000000;2667.00000000000;2673.00000000000;2671.00000000000;2665.00000000000;2669.00000000000;2661.00000000000;2672.00000000000;2665.00000000000;2660.00000000000;2666.00000000000;2697.00000000000;2688.00000000000;2686.00000000000;2701.00000000000;2713.00000000000;2720.00000000000;2740.00000000000;2757.00000000000;2801.00000000000;2795.00000000000;2797.00000000000;2874.00000000000;2847.00000000000;2849.00000000000;2836.00000000000;2791.00000000000;2720.00000000000;2678.00000000000;2645.00000000000;2540.00000000000;2451.00000000000;2313.00000000000;2232.00000000000;2115.00000000000;2016.00000000000;1920.00000000000;1853.00000000000;1749.00000000000;1694.00000000000;1586.00000000000;1548.00000000000;1527.00000000000;1413.00000000000;1341.00000000000;1268.00000000000;1209.00000000000;1090.00000000000;975.000000000000;844.000000000000;681.000000000000;536.000000000000;464.000000000000;363.000000000000;283.000000000000;240.000000000000;222.000000000000;164.000000000000;204.000000000000;188.000000000000;198.000000000000;231.000000000000;307.000000000000;381.000000000000;452.000000000000;538.000000000000;603.000000000000;651.000000000000;674.000000000000;757.000000000000;752.000000000000;807.000000000000;825.000000000000;871.000000000000;873.000000000000;895.000000000000;927.000000000000;1034.00000000000;1106.00000000000;1097.00000000000;1130.00000000000;1241.00000000000;1285.00000000000;1362.00000000000;1490.00000000000;1631.00000000000;1732.00000000000;1779.00000000000;1826.00000000000;1995.00000000000;2092.00000000000;2163.00000000000;2143.00000000000;2270.00000000000;2421.00000000000;2484.00000000000;2624.00000000000;2690.00000000000;2705.00000000000;2673.00000000000;2678.00000000000;2772.00000000000;2820.00000000000;2761.00000000000;2765.00000000000;2772.00000000000;2790.00000000000;2788.00000000000;2758.00000000000;2734.00000000000;2710.00000000000;2738.00000000000;2699.00000000000;2675.00000000000;2657.00000000000;2677.00000000000;2676.00000000000;2660.00000000000;2654.00000000000;2645.00000000000;2654.00000000000;2646.00000000000;2650.00000000000;2677.00000000000;2655.00000000000;2663.00000000000;2688.00000000000;2651.00000000000;2640.00000000000;2698.00000000000;2698.00000000000;2664.00000000000;2660.00000000000;2697.00000000000;2694.00000000000;2675.00000000000;2681.00000000000;2655.00000000000;2668.00000000000
