COMMAND 3 SAMPLE 1
Accel X : 1765.00000000000;1758.00000000000;1771.00000000000;1725.00000000000;1729.00000000000;1737.00000000000;1763.00000000000;1754.00000000000;1740.00000000000;1732.00000000000;1727.00000000000;1740.00000000000;1737.00000000000;1777.00000000000;1738.00000000000;1768.00000000000;1748.00000000000;1736.00000000000;1770.00000000000;1771.00000000000;1764.00000000000;1756.00000000000;1757.00000000000;1750.00000000000;1753.00000000000;1716.00000000000;1711.00000000000;1728.00000000000;1743.00000000000;1806.00000000000;1726.00000000000;1682.00000000000;1887.00000000000;2020.00000000000;2216.00000000000;2512.00000000000;2680.00000000000;2838.00000000000;3002.00000000000;3052.00000000000;3301.00000000000;3506.00000000000;3502.00000000000;3279.00000000000;3225.00000000000;3311.00000000000;3371.00000000000;3168.00000000000;3158.00000000000;3068.00000000000;2962.00000000000;2887.00000000000;2801.00000000000;2617.00000000000;2541.00000000000;2414.00000000000;2269.00000000000;2172.00000000000;2046.00000000000;1961.00000000000;1851.00000000000;1814.00000000000;1766.00000000000;1740.00000000000;1753.00000000000;1674.00000000000;1589.00000000000;1607.00000000000;1604.00000000000;1581.00000000000;1531.00000000000;1562.00000000000;1533.00000000000;1552.00000000000;1604.00000000000;1594.00000000000;1572.00000000000;1544.00000000000;1530.00000000000;1591.00000000000;1536.00000000000;1527.00000000000;1654.00000000000;1735.00000000000;1528.00000000000;1283.00000000000;1659.00000000000;2055.00000000000;1912.00000000000;1760.00000000000;1567.00000000000;1824.00000000000;1901.00000000000;1882.00000000000;1857.00000000000;1853.00000000000;1855.00000000000;2043.00000000000;2053.00000000000;1916.00000000000;1777.00000000000;1711.00000000000;1792.00000000000;1727.00000000000;1587.00000000000;1574.00000000000;1721.00000000000;2036.00000000000;1967.00000000000;1807.00000000000;1737.00000000000;1633.00000000000;1667.00000000000;1716.00000000000;1760.00000000000;1721.00000000000;1669.00000000000;1697.00000000000;1779.00000000000;1827.00000000000;1848.00000000000;1839.00000000000;1860.00000000000;1866.00000000000;1845.00000000000;1840.00000000000;1824.00000000000;1821.00000000000;1813.00000000000;1824.00000000000;1825.00000000000;1802.00000000000;1809.00000000000;1830.00000000000;1830.00000000000;1766.00000000000;1794.00000000000;1805.00000000000;1819.00000000000;1834.00000000000;1820.00000000000;1803.00000000000;1806.00000000000;1795.00000000000;1814.00000000000;1793.00000000000;1817.00000000000;1792.00000000000;1782.00000000000;1794.00000000000
Accel Y : 2118.00000000000;2111.00000000000;2114.00000000000;2117.00000000000;2147.00000000000;2119.00000000000;2089.00000000000;2109.00000000000;2113.00000000000;2117.00000000000;2119.00000000000;2133.00000000000;2130.00000000000;2117.00000000000;2117.00000000000;2119.00000000000;2121.00000000000;2114.00000000000;2114.00000000000;2140.00000000000;2109.00000000000;2123.00000000000;2117.00000000000;2119.00000000000;2116.00000000000;2101.00000000000;2107.00000000000;2127.00000000000;2131.00000000000;2122.00000000000;2115.00000000000;2096.00000000000;2149.00000000000;2091.00000000000;2100.00000000000;2084.00000000000;1990.00000000000;1989.00000000000;1923.00000000000;1893.00000000000;1799.00000000000;1638.00000000000;1679.00000000000;1729.00000000000;1640.00000000000;1611.00000000000;1583.00000000000;1572.00000000000;1576.00000000000;1656.00000000000;1698.00000000000;1708.00000000000;1782.00000000000;1786.00000000000;1794.00000000000;1856.00000000000;1915.00000000000;1878.00000000000;1840.00000000000;1862.00000000000;1854.00000000000;1798.00000000000;1766.00000000000;1749.00000000000;1723.00000000000;1699.00000000000;1694.00000000000;1663.00000000000;1603.00000000000;1584.00000000000;1574.00000000000;1503.00000000000;1499.00000000000;1511.00000000000;1494.00000000000;1468.00000000000;1434.00000000000;1421.00000000000;1434.00000000000;1367.00000000000;1362.00000000000;1390.00000000000;1393.00000000000;1326.00000000000;1349.00000000000;1383.00000000000;1372.00000000000;1316.00000000000;1296.00000000000;1248.00000000000;1200.00000000000;1273.00000000000;1286.00000000000;1307.00000000000;1239.00000000000;1327.00000000000;1415.00000000000;1547.00000000000;1610.00000000000;1569.00000000000;1609.00000000000;1700.00000000000;1808.00000000000;1888.00000000000;1917.00000000000;2007.00000000000;1935.00000000000;1955.00000000000;2038.00000000000;2033.00000000000;2127.00000000000;2160.00000000000;2137.00000000000;2206.00000000000;2217.00000000000;2243.00000000000;2240.00000000000;2232.00000000000;2219.00000000000;2224.00000000000;2193.00000000000;2178.00000000000;2157.00000000000;2138.00000000000;2112.00000000000;2092.00000000000;2093.00000000000;2076.00000000000;2058.00000000000;2039.00000000000;2025.00000000000;2010.00000000000;1985.00000000000;2015.00000000000;1995.00000000000;1994.00000000000;1981.00000000000;1990.00000000000;2010.00000000000;1997.00000000000;1991.00000000000;2007.00000000000;1992.00000000000;2023.00000000000;2030.00000000000;2024.00000000000;2023.00000000000;2032.00000000000;2054.00000000000;2038.00000000000
Accel Z : 2648.00000000000;2639.00000000000;2666.00000000000;2664.00000000000;2670.00000000000;2673.00000000000;2665.00000000000;2652.00000000000;2663.00000000000;2679.00000000000;2655.00000000000;2657.00000000000;2663.00000000000;2651.00000000000;2649.00000000000;2658.00000000000;2661.00000000000;2628.00000000000;2662.00000000000;2665.00000000000;2637.00000000000;2640.00000000000;2649.00000000000;2662.00000000000;2651.00000000000;2656.00000000000;2639.00000000000;2621.00000000000;2640.00000000000;2636.00000000000;2572.00000000000;2527.00000000000;2462.00000000000;2357.00000000000;2263.00000000000;2093.00000000000;2038.00000000000;1816.00000000000;1488.00000000000;1197.00000000000;875.000000000000;916.000000000000;823.000000000000;681.000000000000;468.000000000000;273.000000000000;278.000000000000;213.000000000000;182.000000000000;235.000000000000;263.000000000000;353.000000000000;486.000000000000;597.000000000000;642.000000000000;794.000000000000;916.000000000000;1079.00000000000;1214.00000000000;1339.00000000000;1500.00000000000;1642.00000000000;1754.00000000000;1846.00000000000;1982.00000000000;2064.00000000000;2112.00000000000;2197.00000000000;2350.00000000000;2370.00000000000;2473.00000000000;2551.00000000000;2606.00000000000;2596.00000000000;2610.00000000000;2588.00000000000;2579.00000000000;2539.00000000000;2508.00000000000;2497.00000000000;2446.00000000000;2433.00000000000;2432.00000000000;2342.00000000000;2051.00000000000;1890.00000000000;1907.00000000000;1893.00000000000;1611.00000000000;1464.00000000000;1414.00000000000;1589.00000000000;1638.00000000000;1566.00000000000;1519.00000000000;1690.00000000000;1909.00000000000;2063.00000000000;2070.00000000000;2034.00000000000;2106.00000000000;2284.00000000000;2437.00000000000;2500.00000000000;2579.00000000000;2489.00000000000;2574.00000000000;2752.00000000000;2830.00000000000;2970.00000000000;2997.00000000000;2996.00000000000;3125.00000000000;3265.00000000000;3316.00000000000;3281.00000000000;3191.00000000000;3146.00000000000;3135.00000000000;3078.00000000000;3021.00000000000;2959.00000000000;2900.00000000000;2844.00000000000;2771.00000000000;2702.00000000000;2702.00000000000;2666.00000000000;2639.00000000000;2604.00000000000;2603.00000000000;2568.00000000000;2598.00000000000;2593.00000000000;2595.00000000000;2612.00000000000;2595.00000000000;2605.00000000000;2617.00000000000;2636.00000000000;2657.00000000000;2657.00000000000;2643.00000000000;2657.00000000000;2671.00000000000;2678.00000000000;2657.00000000000;2656.00000000000;2672.00000000000;2681.00000000000
Gyro X : 1765.00000000000;1758.00000000000;1771.00000000000;1725.00000000000;1729.00000000000;1737.00000000000;1763.00000000000;1754.00000000000;1740.00000000000;1732.00000000000;1727.00000000000;1740.00000000000;1737.00000000000;1777.00000000000;1738.00000000000;1768.00000000000;1748.00000000000;1736.00000000000;1770.00000000000;1771.00000000000;1764.00000000000;1756.00000000000;1757.00000000000;1750.00000000000;1753.00000000000;1716.00000000000;1711.00000000000;1728.00000000000;1743.00000000000;1806.00000000000;1726.00000000000;1682.00000000000;1887.00000000000;2020.00000000000;2216.00000000000;2512.00000000000;2680.00000000000;2838.00000000000;3002.00000000000;3052.00000000000;3301.00000000000;3506.00000000000;3502.00000000000;3279.00000000000;3225.00000000000;3311.00000000000;3371.00000000000;3168.00000000000;3158.00000000000;3068.00000000000;2962.00000000000;2887.00000000000;2801.00000000000;2617.00000000000;2541.00000000000;2414.00000000000;2269.00000000000;2172.00000000000;2046.00000000000;1961.00000000000;1851.00000000000;1814.00000000000;1766.00000000000;1740.00000000000;1753.00000000000;1674.00000000000;1589.00000000000;1607.00000000000;1604.00000000000;1581.00000000000;1531.00000000000;1562.00000000000;1533.00000000000;1552.00000000000;1604.00000000000;1594.00000000000;1572.00000000000;1544.00000000000;1530.00000000000;1591.00000000000;1536.00000000000;1527.00000000000;1654.00000000000;1735.00000000000;1528.00000000000;1283.00000000000;1659.00000000000;2055.00000000000;1912.00000000000;1760.00000000000;1567.00000000000;1824.00000000000;1901.00000000000;1882.00000000000;1857.00000000000;1853.00000000000;1855.00000000000;2043.00000000000;2053.00000000000;1916.00000000000;1777.00000000000;1711.00000000000;1792.00000000000;1727.00000000000;1587.00000000000;1574.00000000000;1721.00000000000;2036.00000000000;1967.00000000000;1807.00000000000;1737.00000000000;1633.00000000000;1667.00000000000;1716.00000000000;1760.00000000000;1721.00000000000;1669.00000000000;1697.00000000000;1779.00000000000;1827.00000000000;1848.00000000000;1839.00000000000;1860.00000000000;1866.00000000000;1845.00000000000;1840.00000000000;1824.00000000000;1821.00000000000;1813.00000000000;1824.00000000000;1825.00000000000;1802.00000000000;1809.00000000000;1830.00000000000;1830.00000000000;1766.00000000000;1794.00000000000;1805.00000000000;1819.00000000000;1834.00000000000;1820.00000000000;1803.00000000000;1806.00000000000;1795.00000000000;1814.00000000000;1793.00000000000;1817.00000000000;1792.00000000000;1782.00000000000;1794.00000000000
Gyro Y : 2118.00000000000;2111.00000000000;2114.00000000000;2117.00000000000;2147.00000000000;2119.00000000000;2089.00000000000;2109.00000000000;2113.00000000000;2117.00000000000;2119.00000000000;2133.00000000000;2130.00000000000;2117.00000000000;2117.00000000000;2119.00000000000;2121.00000000000;2114.00000000000;2114.00000000000;2140.00000000000;2109.00000000000;2123.00000000000;2117.00000000000;2119.00000000000;2116.00000000000;2101.00000000000;2107.00000000000;2127.00000000000;2131.00000000000;2122.00000000000;2115.00000000000;2096.00000000000;2149.00000000000;2091.00000000000;2100.00000000000;2084.00000000000;1990.00000000000;1989.00000000000;1923.00000000000;1893.00000000000;1799.00000000000;1638.00000000000;1679.00000000000;1729.00000000000;1640.00000000000;1611.00000000000;1583.00000000000;1572.00000000000;1576.00000000000;1656.00000000000;1698.00000000000;1708.00000000000;1782.00000000000;1786.00000000000;1794.00000000000;1856.00000000000;1915.00000000000;1878.00000000000;1840.00000000000;1862.00000000000;1854.00000000000;1798.00000000000;1766.00000000000;1749.00000000000;1723.00000000000;1699.00000000000;1694.00000000000;1663.00000000000;1603.00000000000;1584.00000000000;1574.00000000000;1503.00000000000;1499.00000000000;1511.00000000000;1494.00000000000;1468.00000000000;1434.00000000000;1421.00000000000;1434.00000000000;1367.00000000000;1362.00000000000;1390.00000000000;1393.00000000000;1326.00000000000;1349.00000000000;1383.00000000000;1372.00000000000;1316.00000000000;1296.00000000000;1248.00000000000;1200.00000000000;1273.00000000000;1286.00000000000;1307.00000000000;1239.00000000000;1327.00000000000;1415.00000000000;1547.00000000000;1610.00000000000;1569.00000000000;1609.00000000000;1700.00000000000;1808.00000000000;1888.00000000000;1917.00000000000;2007.00000000000;1935.00000000000;1955.00000000000;2038.00000000000;2033.00000000000;2127.00000000000;2160.00000000000;2137.00000000000;2206.00000000000;2217.00000000000;2243.00000000000;2240.00000000000;2232.00000000000;2219.00000000000;2224.00000000000;2193.00000000000;2178.00000000000;2157.00000000000;2138.00000000000;2112.00000000000;2092.00000000000;2093.00000000000;2076.00000000000;2058.00000000000;2039.00000000000;2025.00000000000;2010.00000000000;1985.00000000000;2015.00000000000;1995.00000000000;1994.00000000000;1981.00000000000;1990.00000000000;2010.00000000000;1997.00000000000;1991.00000000000;2007.00000000000;1992.00000000000;2023.00000000000;2030.00000000000;2024.00000000000;2023.00000000000;2032.00000000000;2054.00000000000;2038.00000000000
Gyro Z : 2648.00000000000;2639.00000000000;2666.00000000000;2664.00000000000;2670.00000000000;2673.00000000000;2665.00000000000;2652.00000000000;2663.00000000000;2679.00000000000;2655.00000000000;2657.00000000000;2663.00000000000;2651.00000000000;2649.00000000000;2658.00000000000;2661.00000000000;2628.00000000000;2662.00000000000;2665.00000000000;2637.00000000000;2640.00000000000;2649.00000000000;2662.00000000000;2651.00000000000;2656.00000000000;2639.00000000000;2621.00000000000;2640.00000000000;2636.00000000000;2572.00000000000;2527.00000000000;2462.00000000000;2357.00000000000;2263.00000000000;2093.00000000000;2038.00000000000;1816.00000000000;1488.00000000000;1197.00000000000;875.000000000000;916.000000000000;823.000000000000;681.000000000000;468.000000000000;273.000000000000;278.000000000000;213.000000000000;182.000000000000;235.000000000000;263.000000000000;353.000000000000;486.000000000000;597.000000000000;642.000000000000;794.000000000000;916.000000000000;1079.00000000000;1214.00000000000;1339.00000000000;1500.00000000000;1642.00000000000;1754.00000000000;1846.00000000000;1982.00000000000;2064.00000000000;2112.00000000000;2197.00000000000;2350.00000000000;2370.00000000000;2473.00000000000;2551.00000000000;2606.00000000000;2596.00000000000;2610.00000000000;2588.00000000000;2579.00000000000;2539.00000000000;2508.00000000000;2497.00000000000;2446.00000000000;2433.00000000000;2432.00000000000;2342.00000000000;2051.00000000000;1890.00000000000;1907.00000000000;1893.00000000000;1611.00000000000;1464.00000000000;1414.00000000000;1589.00000000000;1638.00000000000;1566.00000000000;1519.00000000000;1690.00000000000;1909.00000000000;2063.00000000000;2070.00000000000;2034.00000000000;2106.00000000000;2284.00000000000;2437.00000000000;2500.00000000000;2579.00000000000;2489.00000000000;2574.00000000000;2752.00000000000;2830.00000000000;2970.00000000000;2997.00000000000;2996.00000000000;3125.00000000000;3265.00000000000;3316.00000000000;3281.00000000000;3191.00000000000;3146.00000000000;3135.00000000000;3078.00000000000;3021.00000000000;2959.00000000000;2900.00000000000;2844.00000000000;2771.00000000000;2702.00000000000;2702.00000000000;2666.00000000000;2639.00000000000;2604.00000000000;2603.00000000000;2568.00000000000;2598.00000000000;2593.00000000000;2595.00000000000;2612.00000000000;2595.00000000000;2605.00000000000;2617.00000000000;2636.00000000000;2657.00000000000;2657.00000000000;2643.00000000000;2657.00000000000;2671.00000000000;2678.00000000000;2657.00000000000;2656.00000000000;2672.00000000000;2681.00000000000
