COMMAND 1 SAMPLE 1
Accel X : 1875.00000000000;1862.00000000000;1850.00000000000;1857.00000000000;1863.00000000000;1875.00000000000;1866.00000000000;1853.00000000000;1879.00000000000;1867.00000000000;1873.00000000000;1895.00000000000;1866.00000000000;1864.00000000000;1848.00000000000;1864.00000000000;1867.00000000000;1875.00000000000;1868.00000000000;1874.00000000000;1865.00000000000;1905.00000000000;1867.00000000000;1883.00000000000;1848.00000000000;1856.00000000000;1841.00000000000;1872.00000000000;1875.00000000000;1849.00000000000;1856.00000000000;1862.00000000000;1852.00000000000;1854.00000000000;1859.00000000000;1834.00000000000;1825.00000000000;1808.00000000000;1840.00000000000;1840.00000000000;1844.00000000000;1810.00000000000;1795.00000000000;1802.00000000000;1858.00000000000;1956.00000000000;1982.00000000000;2000.00000000000;2004.00000000000;1998.00000000000;2048.00000000000;2062.00000000000;2069.00000000000;2079.00000000000;2063.00000000000;1999.00000000000;1966.00000000000;1929.00000000000;1852.00000000000;1863.00000000000;1861.00000000000;1877.00000000000;1884.00000000000;1885.00000000000;1893.00000000000;1831.00000000000;1758.00000000000;1726.00000000000;1680.00000000000;1555.00000000000;1458.00000000000;1365.00000000000;1178.00000000000;946.000000000000;767.000000000000;651.000000000000;692.000000000000;808.000000000000;831.000000000000;850.000000000000;959.000000000000;1120.00000000000;1145.00000000000;1212.00000000000;1254.00000000000;1335.00000000000;1398.00000000000;1470.00000000000;1652.00000000000;1851.00000000000;1885.00000000000;1953.00000000000;2081.00000000000;2208.00000000000;2165.00000000000;2081.00000000000;2043.00000000000;2228.00000000000;2238.00000000000;2227.00000000000;2128.00000000000;1790.00000000000;1464.00000000000;1528.00000000000;2048.00000000000;2392.00000000000;2299.00000000000;1986.00000000000;1722.00000000000;1733.00000000000;1966.00000000000;2102.00000000000;2026.00000000000;1951.00000000000;1911.00000000000;1908.00000000000;1980.00000000000;2023.00000000000;2072.00000000000;2058.00000000000;2041.00000000000;2010.00000000000;1995.00000000000;2001.00000000000;1966.00000000000;1921.00000000000;1941.00000000000;1962.00000000000;1979.00000000000;1991.00000000000;1953.00000000000;1929.00000000000;1916.00000000000;1943.00000000000;1958.00000000000;1943.00000000000;1937.00000000000;1948.00000000000;1921.00000000000;1933.00000000000;1947.00000000000;1940.00000000000;1963.00000000000;1953.00000000000;1913.00000000000;1962.00000000000;1945.00000000000;1944.00000000000;1967.00000000000;1932.00000000000
Accel Y : 2059.00000000000;2059.00000000000;2081.00000000000;2081.00000000000;2073.00000000000;2079.00000000000;2074.00000000000;2057.00000000000;2043.00000000000;2076.00000000000;2064.00000000000;2063.00000000000;2083.00000000000;2080.00000000000;2066.00000000000;2084.00000000000;2065.00000000000;2081.00000000000;2064.00000000000;2071.00000000000;2068.00000000000;2063.00000000000;2056.00000000000;2076.00000000000;2074.00000000000;2068.00000000000;2054.00000000000;2049.00000000000;2075.00000000000;2063.00000000000;2048.00000000000;2078.00000000000;2048.00000000000;2075.00000000000;2082.00000000000;2043.00000000000;2070.00000000000;2067.00000000000;2063.00000000000;2067.00000000000;2043.00000000000;2076.00000000000;2079.00000000000;2079.00000000000;2065.00000000000;2031.00000000000;2023.00000000000;2037.00000000000;2032.00000000000;1982.00000000000;1930.00000000000;1962.00000000000;1895.00000000000;1873.00000000000;1860.00000000000;1787.00000000000;1751.00000000000;1739.00000000000;1703.00000000000;1694.00000000000;1693.00000000000;1622.00000000000;1632.00000000000;1630.00000000000;1652.00000000000;1661.00000000000;1639.00000000000;1626.00000000000;1609.00000000000;1626.00000000000;1609.00000000000;1610.00000000000;1561.00000000000;1553.00000000000;1593.00000000000;1528.00000000000;1546.00000000000;1553.00000000000;1518.00000000000;1495.00000000000;1473.00000000000;1478.00000000000;1397.00000000000;1336.00000000000;1373.00000000000;1369.00000000000;1402.00000000000;1432.00000000000;1499.00000000000;1503.00000000000;1585.00000000000;1779.00000000000;1932.00000000000;1970.00000000000;2039.00000000000;2136.00000000000;2243.00000000000;2273.00000000000;2428.00000000000;2606.00000000000;2543.00000000000;2397.00000000000;2392.00000000000;2426.00000000000;2320.00000000000;2145.00000000000;2204.00000000000;2227.00000000000;2185.00000000000;2163.00000000000;2171.00000000000;2179.00000000000;2184.00000000000;2141.00000000000;2156.00000000000;2106.00000000000;2096.00000000000;2066.00000000000;2025.00000000000;2054.00000000000;2055.00000000000;2050.00000000000;2027.00000000000;2048.00000000000;2051.00000000000;2031.00000000000;2027.00000000000;2005.00000000000;1983.00000000000;1996.00000000000;1967.00000000000;1986.00000000000;1964.00000000000;1963.00000000000;1979.00000000000;1974.00000000000;1979.00000000000;1973.00000000000;1967.00000000000;1976.00000000000;1991.00000000000;1987.00000000000;2006.00000000000;1988.00000000000;2010.00000000000;1999.00000000000;1994.00000000000;2007.00000000000;1991.00000000000;2029.00000000000
Accel Z : 2664.00000000000;2682.00000000000;2672.00000000000;2666.00000000000;2685.00000000000;2693.00000000000;2663.00000000000;2697.00000000000;2676.00000000000;2650.00000000000;2662.00000000000;2690.00000000000;2674.00000000000;2692.00000000000;2688.00000000000;2683.00000000000;2674.00000000000;2674.00000000000;2683.00000000000;2680.00000000000;2690.00000000000;2679.00000000000;2672.00000000000;2676.00000000000;2691.00000000000;2671.00000000000;2686.00000000000;2670.00000000000;2687.00000000000;2694.00000000000;2685.00000000000;2685.00000000000;2707.00000000000;2722.00000000000;2745.00000000000;2792.00000000000;2800.00000000000;2814.00000000000;2845.00000000000;2886.00000000000;2923.00000000000;2984.00000000000;3018.00000000000;3018.00000000000;3015.00000000000;2994.00000000000;2985.00000000000;2960.00000000000;2942.00000000000;2874.00000000000;2814.00000000000;2741.00000000000;2661.00000000000;2588.00000000000;2511.00000000000;2365.00000000000;2286.00000000000;2156.00000000000;2019.00000000000;1942.00000000000;1799.00000000000;1703.00000000000;1592.00000000000;1458.00000000000;1374.00000000000;1286.00000000000;1089.00000000000;978.000000000000;848.000000000000;717.000000000000;588.000000000000;476.000000000000;428.000000000000;440.000000000000;394.000000000000;387.000000000000;545.000000000000;670.000000000000;652.000000000000;584.000000000000;623.000000000000;619.000000000000;616.000000000000;625.000000000000;556.000000000000;584.000000000000;666.000000000000;833.000000000000;991.000000000000;1142.00000000000;1215.00000000000;1385.00000000000;1518.00000000000;1598.00000000000;1737.00000000000;1812.00000000000;1867.00000000000;1948.00000000000;2217.00000000000;2547.00000000000;2551.00000000000;2386.00000000000;2425.00000000000;3059.00000000000;3336.00000000000;3505.00000000000;3455.00000000000;3327.00000000000;3191.00000000000;3166.00000000000;3178.00000000000;3153.00000000000;3057.00000000000;2988.00000000000;2925.00000000000;2861.00000000000;2787.00000000000;2739.00000000000;2730.00000000000;2703.00000000000;2682.00000000000;2662.00000000000;2665.00000000000;2676.00000000000;2656.00000000000;2612.00000000000;2598.00000000000;2599.00000000000;2623.00000000000;2645.00000000000;2633.00000000000;2631.00000000000;2634.00000000000;2644.00000000000;2672.00000000000;2657.00000000000;2664.00000000000;2650.00000000000;2663.00000000000;2691.00000000000;2649.00000000000;2686.00000000000;2661.00000000000;2655.00000000000;2676.00000000000;2658.00000000000;2659.00000000000;2673.00000000000;2667.00000000000;2657.00000000000
Gyro X : 1875.00000000000;1862.00000000000;1850.00000000000;1857.00000000000;1863.00000000000;1875.00000000000;1866.00000000000;1853.00000000000;1879.00000000000;1867.00000000000;1873.00000000000;1895.00000000000;1866.00000000000;1864.00000000000;1848.00000000000;1864.00000000000;1867.00000000000;1875.00000000000;1868.00000000000;1874.00000000000;1865.00000000000;1905.00000000000;1867.00000000000;1883.00000000000;1848.00000000000;1856.00000000000;1841.00000000000;1872.00000000000;1875.00000000000;1849.00000000000;1856.00000000000;1862.00000000000;1852.00000000000;1854.00000000000;1859.00000000000;1834.00000000000;1825.00000000000;1808.00000000000;1840.00000000000;1840.00000000000;1844.00000000000;1810.00000000000;1795.00000000000;1802.00000000000;1858.00000000000;1956.00000000000;1982.00000000000;2000.00000000000;2004.00000000000;1998.00000000000;2048.00000000000;2062.00000000000;2069.00000000000;2079.00000000000;2063.00000000000;1999.00000000000;1966.00000000000;1929.00000000000;1852.00000000000;1863.00000000000;1861.00000000000;1877.00000000000;1884.00000000000;1885.00000000000;1893.00000000000;1831.00000000000;1758.00000000000;1726.00000000000;1680.00000000000;1555.00000000000;1458.00000000000;1365.00000000000;1178.00000000000;946.000000000000;767.000000000000;651.000000000000;692.000000000000;808.000000000000;831.000000000000;850.000000000000;959.000000000000;1120.00000000000;1145.00000000000;1212.00000000000;1254.00000000000;1335.00000000000;1398.00000000000;1470.00000000000;1652.00000000000;1851.00000000000;1885.00000000000;1953.00000000000;2081.00000000000;2208.00000000000;2165.00000000000;2081.00000000000;2043.00000000000;2228.00000000000;2238.00000000000;2227.00000000000;2128.00000000000;1790.00000000000;1464.00000000000;1528.00000000000;2048.00000000000;2392.00000000000;2299.00000000000;1986.00000000000;1722.00000000000;1733.00000000000;1966.00000000000;2102.00000000000;2026.00000000000;1951.00000000000;1911.00000000000;1908.00000000000;1980.00000000000;2023.00000000000;2072.00000000000;2058.00000000000;2041.00000000000;2010.00000000000;1995.00000000000;2001.00000000000;1966.00000000000;1921.00000000000;1941.00000000000;1962.00000000000;1979.00000000000;1991.00000000000;1953.00000000000;1929.00000000000;1916.00000000000;1943.00000000000;1958.00000000000;1943.00000000000;1937.00000000000;1948.00000000000;1921.00000000000;1933.00000000000;1947.00000000000;1940.00000000000;1963.00000000000;1953.00000000000;1913.00000000000;1962.00000000000;1945.00000000000;1944.00000000000;1967.00000000000;1932.00000000000
Gyro Y : 2059.00000000000;2059.00000000000;2081.00000000000;2081.00000000000;2073.00000000000;2079.00000000000;2074.00000000000;2057.00000000000;2043.00000000000;2076.00000000000;2064.00000000000;2063.00000000000;2083.00000000000;2080.00000000000;2066.00000000000;2084.00000000000;2065.00000000000;2081.00000000000;2064.00000000000;2071.00000000000;2068.00000000000;2063.00000000000;2056.00000000000;2076.00000000000;2074.00000000000;2068.00000000000;2054.00000000000;2049.00000000000;2075.00000000000;2063.00000000000;2048.00000000000;2078.00000000000;2048.00000000000;2075.00000000000;2082.00000000000;2043.00000000000;2070.00000000000;2067.00000000000;2063.00000000000;2067.00000000000;2043.00000000000;2076.00000000000;2079.00000000000;2079.00000000000;2065.00000000000;2031.00000000000;2023.00000000000;2037.00000000000;2032.00000000000;1982.00000000000;1930.00000000000;1962.00000000000;1895.00000000000;1873.00000000000;1860.00000000000;1787.00000000000;1751.00000000000;1739.00000000000;1703.00000000000;1694.00000000000;1693.00000000000;1622.00000000000;1632.00000000000;1630.00000000000;1652.00000000000;1661.00000000000;1639.00000000000;1626.00000000000;1609.00000000000;1626.00000000000;1609.00000000000;1610.00000000000;1561.00000000000;1553.00000000000;1593.00000000000;1528.00000000000;1546.00000000000;1553.00000000000;1518.00000000000;1495.00000000000;1473.00000000000;1478.00000000000;1397.00000000000;1336.00000000000;1373.00000000000;1369.00000000000;1402.00000000000;1432.00000000000;1499.00000000000;1503.00000000000;1585.00000000000;1779.00000000000;1932.00000000000;1970.00000000000;2039.00000000000;2136.00000000000;2243.00000000000;2273.00000000000;2428.00000000000;2606.00000000000;2543.00000000000;2397.00000000000;2392.00000000000;2426.00000000000;2320.00000000000;2145.00000000000;2204.00000000000;2227.00000000000;2185.00000000000;2163.00000000000;2171.00000000000;2179.00000000000;2184.00000000000;2141.00000000000;2156.00000000000;2106.00000000000;2096.00000000000;2066.00000000000;2025.00000000000;2054.00000000000;2055.00000000000;2050.00000000000;2027.00000000000;2048.00000000000;2051.00000000000;2031.00000000000;2027.00000000000;2005.00000000000;1983.00000000000;1996.00000000000;1967.00000000000;1986.00000000000;1964.00000000000;1963.00000000000;1979.00000000000;1974.00000000000;1979.00000000000;1973.00000000000;1967.00000000000;1976.00000000000;1991.00000000000;1987.00000000000;2006.00000000000;1988.00000000000;2010.00000000000;1999.00000000000;1994.00000000000;2007.00000000000;1991.00000000000;2029.00000000000
Gyro Z : 2664.00000000000;2682.00000000000;2672.00000000000;2666.00000000000;2685.00000000000;2693.00000000000;2663.00000000000;2697.00000000000;2676.00000000000;2650.00000000000;2662.00000000000;2690.00000000000;2674.00000000000;2692.00000000000;2688.00000000000;2683.00000000000;2674.00000000000;2674.00000000000;2683.00000000000;2680.00000000000;2690.00000000000;2679.00000000000;2672.00000000000;2676.00000000000;2691.00000000000;2671.00000000000;2686.00000000000;2670.00000000000;2687.00000000000;2694.00000000000;2685.00000000000;2685.00000000000;2707.00000000000;2722.00000000000;2745.00000000000;2792.00000000000;2800.00000000000;2814.00000000000;2845.00000000000;2886.00000000000;2923.00000000000;2984.00000000000;3018.00000000000;3018.00000000000;3015.00000000000;2994.00000000000;2985.00000000000;2960.00000000000;2942.00000000000;2874.00000000000;2814.00000000000;2741.00000000000;2661.00000000000;2588.00000000000;2511.00000000000;2365.00000000000;2286.00000000000;2156.00000000000;2019.00000000000;1942.00000000000;1799.00000000000;1703.00000000000;1592.00000000000;1458.00000000000;1374.00000000000;1286.00000000000;1089.00000000000;978.000000000000;848.000000000000;717.000000000000;588.000000000000;476.000000000000;428.000000000000;440.000000000000;394.000000000000;387.000000000000;545.000000000000;670.000000000000;652.000000000000;584.000000000000;623.000000000000;619.000000000000;616.000000000000;625.000000000000;556.000000000000;584.000000000000;666.000000000000;833.000000000000;991.000000000000;1142.00000000000;1215.00000000000;1385.00000000000;1518.00000000000;1598.00000000000;1737.00000000000;1812.00000000000;1867.00000000000;1948.00000000000;2217.00000000000;2547.00000000000;2551.00000000000;2386.00000000000;2425.00000000000;3059.00000000000;3336.00000000000;3505.00000000000;3455.00000000000;3327.00000000000;3191.00000000000;3166.00000000000;3178.00000000000;3153.00000000000;3057.00000000000;2988.00000000000;2925.00000000000;2861.00000000000;2787.00000000000;2739.00000000000;2730.00000000000;2703.00000000000;2682.00000000000;2662.00000000000;2665.00000000000;2676.00000000000;2656.00000000000;2612.00000000000;2598.00000000000;2599.00000000000;2623.00000000000;2645.00000000000;2633.00000000000;2631.00000000000;2634.00000000000;2644.00000000000;2672.00000000000;2657.00000000000;2664.00000000000;2650.00000000000;2663.00000000000;2691.00000000000;2649.00000000000;2686.00000000000;2661.00000000000;2655.00000000000;2676.00000000000;2658.00000000000;2659.00000000000;2673.00000000000;2667.00000000000;2657.00000000000
