COMMAND 1 SAMPLE 1
Accel X : 1952.00000000000;1930.00000000000;1957.00000000000;1938.00000000000;1972.00000000000;1941.00000000000;1967.00000000000;1960.00000000000;1961.00000000000;1942.00000000000;1969.00000000000;1963.00000000000;1944.00000000000;1933.00000000000;1966.00000000000;1942.00000000000;1943.00000000000;1970.00000000000;1939.00000000000;1933.00000000000;1944.00000000000;1949.00000000000;1960.00000000000;1956.00000000000;1953.00000000000;1931.00000000000;1951.00000000000;1951.00000000000;1955.00000000000;1945.00000000000;1927.00000000000;1927.00000000000;1953.00000000000;1966.00000000000;1955.00000000000;1956.00000000000;1987.00000000000;1939.00000000000;1966.00000000000;1932.00000000000;1942.00000000000;2013.00000000000;2016.00000000000;2018.00000000000;2065.00000000000;2095.00000000000;2048.00000000000;2063.00000000000;2173.00000000000;2200.00000000000;2261.00000000000;2285.00000000000;2279.00000000000;2258.00000000000;2241.00000000000;2178.00000000000;2070.00000000000;2059.00000000000;2041.00000000000;2046.00000000000;1935.00000000000;1887.00000000000;1863.00000000000;1875.00000000000;1845.00000000000;1774.00000000000;1716.00000000000;1588.00000000000;1329.00000000000;978.000000000000;432.000000000000;19.0000000000000;20.0000000000000;194.000000000000;332.000000000000;141.000000000000;844.000000000000;723.000000000000;1332.00000000000;1091.00000000000;1049.00000000000;1083.00000000000;1329.00000000000;1513.00000000000;1688.00000000000;1839.00000000000;1865.00000000000;1969.00000000000;2067.00000000000;2139.00000000000;2146.00000000000;2018.00000000000;2038.00000000000;2158.00000000000;2297.00000000000;2316.00000000000;2207.00000000000;2130.00000000000;2036.00000000000;1812.00000000000;1790.00000000000;1920.00000000000;2171.00000000000;2406.00000000000;2275.00000000000;2048.00000000000;1929.00000000000;1974.00000000000;2119.00000000000;2165.00000000000;2078.00000000000;2016.00000000000;1975.00000000000;1965.00000000000;1955.00000000000;2009.00000000000;2072.00000000000;2079.00000000000;2016.00000000000;1982.00000000000;1958.00000000000;1979.00000000000;2002.00000000000;2016.00000000000;2020.00000000000;1970.00000000000;2007.00000000000;2043.00000000000;2012.00000000000;2001.00000000000;2016.00000000000;2024.00000000000;2026.00000000000;2014.00000000000;2043.00000000000;2019.00000000000;2019.00000000000;2008.00000000000;2030.00000000000;2024.00000000000;2037.00000000000;2024.00000000000;2034.00000000000;2001.00000000000;2025.00000000000;2050.00000000000;2028.00000000000;2034.00000000000;2018.00000000000;2009.00000000000
Accel Y : 2035.00000000000;2023.00000000000;2008.00000000000;2027.00000000000;2022.00000000000;2007.00000000000;2028.00000000000;2018.00000000000;2019.00000000000;2040.00000000000;2007.00000000000;2026.00000000000;2026.00000000000;1997.00000000000;2020.00000000000;2025.00000000000;2022.00000000000;2007.00000000000;2027.00000000000;2013.00000000000;2017.00000000000;2018.00000000000;2016.00000000000;2026.00000000000;2025.00000000000;2015.00000000000;2023.00000000000;2023.00000000000;2020.00000000000;2013.00000000000;2027.00000000000;2013.00000000000;2031.00000000000;2021.00000000000;2026.00000000000;2011.00000000000;2032.00000000000;2046.00000000000;2059.00000000000;2075.00000000000;2047.00000000000;2118.00000000000;2086.00000000000;2079.00000000000;2070.00000000000;2051.00000000000;2089.00000000000;2075.00000000000;2065.00000000000;2072.00000000000;2071.00000000000;2086.00000000000;2143.00000000000;2136.00000000000;2127.00000000000;2063.00000000000;2061.00000000000;2038.00000000000;1973.00000000000;1969.00000000000;1995.00000000000;1958.00000000000;1932.00000000000;1941.00000000000;1932.00000000000;1889.00000000000;1875.00000000000;1887.00000000000;1876.00000000000;1867.00000000000;1787.00000000000;1276.00000000000;1887.00000000000;1942.00000000000;1559.00000000000;1717.00000000000;1482.00000000000;1538.00000000000;1661.00000000000;1506.00000000000;1468.00000000000;1467.00000000000;1501.00000000000;1508.00000000000;1508.00000000000;1584.00000000000;1679.00000000000;1791.00000000000;1796.00000000000;1803.00000000000;1856.00000000000;2024.00000000000;2070.00000000000;2073.00000000000;2127.00000000000;2232.00000000000;2340.00000000000;2281.00000000000;2295.00000000000;2342.00000000000;2254.00000000000;2251.00000000000;2184.00000000000;2110.00000000000;2097.00000000000;2088.00000000000;2049.00000000000;2087.00000000000;2079.00000000000;2107.00000000000;2071.00000000000;2066.00000000000;2043.00000000000;2009.00000000000;1997.00000000000;2000.00000000000;1968.00000000000;1979.00000000000;1984.00000000000;1968.00000000000;1991.00000000000;2000.00000000000;1973.00000000000;1963.00000000000;1942.00000000000;1946.00000000000;1943.00000000000;1947.00000000000;1953.00000000000;1956.00000000000;1943.00000000000;1950.00000000000;1937.00000000000;1972.00000000000;1950.00000000000;1974.00000000000;1973.00000000000;1952.00000000000;1969.00000000000;1968.00000000000;1943.00000000000;1975.00000000000;1955.00000000000;1968.00000000000;1938.00000000000;1960.00000000000;1975.00000000000;1954.00000000000;1936.00000000000;1969.00000000000
Accel Z : 2688.00000000000;2691.00000000000;2691.00000000000;2674.00000000000;2691.00000000000;2687.00000000000;2682.00000000000;2675.00000000000;2695.00000000000;2670.00000000000;2666.00000000000;2666.00000000000;2676.00000000000;2679.00000000000;2688.00000000000;2667.00000000000;2663.00000000000;2659.00000000000;2679.00000000000;2638.00000000000;2668.00000000000;2672.00000000000;2673.00000000000;2662.00000000000;2679.00000000000;2671.00000000000;2674.00000000000;2695.00000000000;2671.00000000000;2684.00000000000;2669.00000000000;2669.00000000000;2687.00000000000;2679.00000000000;2700.00000000000;2703.00000000000;2725.00000000000;2761.00000000000;2766.00000000000;2820.00000000000;2846.00000000000;2950.00000000000;3038.00000000000;3039.00000000000;3078.00000000000;3143.00000000000;3142.00000000000;3103.00000000000;3076.00000000000;3045.00000000000;2991.00000000000;2873.00000000000;2826.00000000000;2742.00000000000;2582.00000000000;2413.00000000000;2287.00000000000;2052.00000000000;1910.00000000000;1801.00000000000;1656.00000000000;1546.00000000000;1398.00000000000;1278.00000000000;1135.00000000000;960.000000000000;806.000000000000;627.000000000000;505.000000000000;346.000000000000;243.000000000000;66.0000000000000;23.0000000000000;592.000000000000;947.000000000000;638.000000000000;616.000000000000;468.000000000000;940.000000000000;674.000000000000;851.000000000000;830.000000000000;877.000000000000;903.000000000000;1011.00000000000;1133.00000000000;1396.00000000000;1471.00000000000;1485.00000000000;1455.00000000000;1620.00000000000;1821.00000000000;1938.00000000000;2035.00000000000;2066.00000000000;2280.00000000000;2429.00000000000;2542.00000000000;2669.00000000000;2877.00000000000;3166.00000000000;3361.00000000000;3317.00000000000;3343.00000000000;3249.00000000000;3165.00000000000;3068.00000000000;3024.00000000000;3015.00000000000;2970.00000000000;2896.00000000000;2811.00000000000;2799.00000000000;2737.00000000000;2689.00000000000;2668.00000000000;2656.00000000000;2652.00000000000;2615.00000000000;2631.00000000000;2605.00000000000;2634.00000000000;2646.00000000000;2632.00000000000;2624.00000000000;2612.00000000000;2640.00000000000;2648.00000000000;2680.00000000000;2662.00000000000;2661.00000000000;2678.00000000000;2663.00000000000;2673.00000000000;2655.00000000000;2657.00000000000;2696.00000000000;2657.00000000000;2666.00000000000;2663.00000000000;2667.00000000000;2642.00000000000;2656.00000000000;2651.00000000000;2667.00000000000;2672.00000000000;2669.00000000000;2662.00000000000;2654.00000000000;2684.00000000000
Gyro X : 1952.00000000000;1930.00000000000;1957.00000000000;1938.00000000000;1972.00000000000;1941.00000000000;1967.00000000000;1960.00000000000;1961.00000000000;1942.00000000000;1969.00000000000;1963.00000000000;1944.00000000000;1933.00000000000;1966.00000000000;1942.00000000000;1943.00000000000;1970.00000000000;1939.00000000000;1933.00000000000;1944.00000000000;1949.00000000000;1960.00000000000;1956.00000000000;1953.00000000000;1931.00000000000;1951.00000000000;1951.00000000000;1955.00000000000;1945.00000000000;1927.00000000000;1927.00000000000;1953.00000000000;1966.00000000000;1955.00000000000;1956.00000000000;1987.00000000000;1939.00000000000;1966.00000000000;1932.00000000000;1942.00000000000;2013.00000000000;2016.00000000000;2018.00000000000;2065.00000000000;2095.00000000000;2048.00000000000;2063.00000000000;2173.00000000000;2200.00000000000;2261.00000000000;2285.00000000000;2279.00000000000;2258.00000000000;2241.00000000000;2178.00000000000;2070.00000000000;2059.00000000000;2041.00000000000;2046.00000000000;1935.00000000000;1887.00000000000;1863.00000000000;1875.00000000000;1845.00000000000;1774.00000000000;1716.00000000000;1588.00000000000;1329.00000000000;978.000000000000;432.000000000000;19.0000000000000;20.0000000000000;194.000000000000;332.000000000000;141.000000000000;844.000000000000;723.000000000000;1332.00000000000;1091.00000000000;1049.00000000000;1083.00000000000;1329.00000000000;1513.00000000000;1688.00000000000;1839.00000000000;1865.00000000000;1969.00000000000;2067.00000000000;2139.00000000000;2146.00000000000;2018.00000000000;2038.00000000000;2158.00000000000;2297.00000000000;2316.00000000000;2207.00000000000;2130.00000000000;2036.00000000000;1812.00000000000;1790.00000000000;1920.00000000000;2171.00000000000;2406.00000000000;2275.00000000000;2048.00000000000;1929.00000000000;1974.00000000000;2119.00000000000;2165.00000000000;2078.00000000000;2016.00000000000;1975.00000000000;1965.00000000000;1955.00000000000;2009.00000000000;2072.00000000000;2079.00000000000;2016.00000000000;1982.00000000000;1958.00000000000;1979.00000000000;2002.00000000000;2016.00000000000;2020.00000000000;1970.00000000000;2007.00000000000;2043.00000000000;2012.00000000000;2001.00000000000;2016.00000000000;2024.00000000000;2026.00000000000;2014.00000000000;2043.00000000000;2019.00000000000;2019.00000000000;2008.00000000000;2030.00000000000;2024.00000000000;2037.00000000000;2024.00000000000;2034.00000000000;2001.00000000000;2025.00000000000;2050.00000000000;2028.00000000000;2034.00000000000;2018.00000000000;2009.00000000000
Gyro Y : 2035.00000000000;2023.00000000000;2008.00000000000;2027.00000000000;2022.00000000000;2007.00000000000;2028.00000000000;2018.00000000000;2019.00000000000;2040.00000000000;2007.00000000000;2026.00000000000;2026.00000000000;1997.00000000000;2020.00000000000;2025.00000000000;2022.00000000000;2007.00000000000;2027.00000000000;2013.00000000000;2017.00000000000;2018.00000000000;2016.00000000000;2026.00000000000;2025.00000000000;2015.00000000000;2023.00000000000;2023.00000000000;2020.00000000000;2013.00000000000;2027.00000000000;2013.00000000000;2031.00000000000;2021.00000000000;2026.00000000000;2011.00000000000;2032.00000000000;2046.00000000000;2059.00000000000;2075.00000000000;2047.00000000000;2118.00000000000;2086.00000000000;2079.00000000000;2070.00000000000;2051.00000000000;2089.00000000000;2075.00000000000;2065.00000000000;2072.00000000000;2071.00000000000;2086.00000000000;2143.00000000000;2136.00000000000;2127.00000000000;2063.00000000000;2061.00000000000;2038.00000000000;1973.00000000000;1969.00000000000;1995.00000000000;1958.00000000000;1932.00000000000;1941.00000000000;1932.00000000000;1889.00000000000;1875.00000000000;1887.00000000000;1876.00000000000;1867.00000000000;1787.00000000000;1276.00000000000;1887.00000000000;1942.00000000000;1559.00000000000;1717.00000000000;1482.00000000000;1538.00000000000;1661.00000000000;1506.00000000000;1468.00000000000;1467.00000000000;1501.00000000000;1508.00000000000;1508.00000000000;1584.00000000000;1679.00000000000;1791.00000000000;1796.00000000000;1803.00000000000;1856.00000000000;2024.00000000000;2070.00000000000;2073.00000000000;2127.00000000000;2232.00000000000;2340.00000000000;2281.00000000000;2295.00000000000;2342.00000000000;2254.00000000000;2251.00000000000;2184.00000000000;2110.00000000000;2097.00000000000;2088.00000000000;2049.00000000000;2087.00000000000;2079.00000000000;2107.00000000000;2071.00000000000;2066.00000000000;2043.00000000000;2009.00000000000;1997.00000000000;2000.00000000000;1968.00000000000;1979.00000000000;1984.00000000000;1968.00000000000;1991.00000000000;2000.00000000000;1973.00000000000;1963.00000000000;1942.00000000000;1946.00000000000;1943.00000000000;1947.00000000000;1953.00000000000;1956.00000000000;1943.00000000000;1950.00000000000;1937.00000000000;1972.00000000000;1950.00000000000;1974.00000000000;1973.00000000000;1952.00000000000;1969.00000000000;1968.00000000000;1943.00000000000;1975.00000000000;1955.00000000000;1968.00000000000;1938.00000000000;1960.00000000000;1975.00000000000;1954.00000000000;1936.00000000000;1969.00000000000
Gyro Z : 2688.00000000000;2691.00000000000;2691.00000000000;2674.00000000000;2691.00000000000;2687.00000000000;2682.00000000000;2675.00000000000;2695.00000000000;2670.00000000000;2666.00000000000;2666.00000000000;2676.00000000000;2679.00000000000;2688.00000000000;2667.00000000000;2663.00000000000;2659.00000000000;2679.00000000000;2638.00000000000;2668.00000000000;2672.00000000000;2673.00000000000;2662.00000000000;2679.00000000000;2671.00000000000;2674.00000000000;2695.00000000000;2671.00000000000;2684.00000000000;2669.00000000000;2669.00000000000;2687.00000000000;2679.00000000000;2700.00000000000;2703.00000000000;2725.00000000000;2761.00000000000;2766.00000000000;2820.00000000000;2846.00000000000;2950.00000000000;3038.00000000000;3039.00000000000;3078.00000000000;3143.00000000000;3142.00000000000;3103.00000000000;3076.00000000000;3045.00000000000;2991.00000000000;2873.00000000000;2826.00000000000;2742.00000000000;2582.00000000000;2413.00000000000;2287.00000000000;2052.00000000000;1910.00000000000;1801.00000000000;1656.00000000000;1546.00000000000;1398.00000000000;1278.00000000000;1135.00000000000;960.000000000000;806.000000000000;627.000000000000;505.000000000000;346.000000000000;243.000000000000;66.0000000000000;23.0000000000000;592.000000000000;947.000000000000;638.000000000000;616.000000000000;468.000000000000;940.000000000000;674.000000000000;851.000000000000;830.000000000000;877.000000000000;903.000000000000;1011.00000000000;1133.00000000000;1396.00000000000;1471.00000000000;1485.00000000000;1455.00000000000;1620.00000000000;1821.00000000000;1938.00000000000;2035.00000000000;2066.00000000000;2280.00000000000;2429.00000000000;2542.00000000000;2669.00000000000;2877.00000000000;3166.00000000000;3361.00000000000;3317.00000000000;3343.00000000000;3249.00000000000;3165.00000000000;3068.00000000000;3024.00000000000;3015.00000000000;2970.00000000000;2896.00000000000;2811.00000000000;2799.00000000000;2737.00000000000;2689.00000000000;2668.00000000000;2656.00000000000;2652.00000000000;2615.00000000000;2631.00000000000;2605.00000000000;2634.00000000000;2646.00000000000;2632.00000000000;2624.00000000000;2612.00000000000;2640.00000000000;2648.00000000000;2680.00000000000;2662.00000000000;2661.00000000000;2678.00000000000;2663.00000000000;2673.00000000000;2655.00000000000;2657.00000000000;2696.00000000000;2657.00000000000;2666.00000000000;2663.00000000000;2667.00000000000;2642.00000000000;2656.00000000000;2651.00000000000;2667.00000000000;2672.00000000000;2669.00000000000;2662.00000000000;2654.00000000000;2684.00000000000
