COMMAND 3 SAMPLE 1
Accel X : 1795.00000000000;1789.00000000000;1780.00000000000;1772.00000000000;1793.00000000000;1818.00000000000;1791.00000000000;1785.00000000000;1769.00000000000;1774.00000000000;1807.00000000000;1782.00000000000;1810.00000000000;1798.00000000000;1789.00000000000;1792.00000000000;1829.00000000000;1799.00000000000;1822.00000000000;1791.00000000000;1815.00000000000;1815.00000000000;1831.00000000000;1809.00000000000;1816.00000000000;1818.00000000000;1807.00000000000;1807.00000000000;1818.00000000000;1826.00000000000;1820.00000000000;1775.00000000000;1884.00000000000;2053.00000000000;2323.00000000000;2678.00000000000;3043.00000000000;3266.00000000000;3358.00000000000;3481.00000000000;3628.00000000000;3630.00000000000;3529.00000000000;3584.00000000000;3351.00000000000;3187.00000000000;3040.00000000000;2860.00000000000;2716.00000000000;2694.00000000000;2511.00000000000;2388.00000000000;2296.00000000000;2242.00000000000;2190.00000000000;2082.00000000000;1956.00000000000;1842.00000000000;1781.00000000000;1731.00000000000;1614.00000000000;1534.00000000000;1483.00000000000;1385.00000000000;1344.00000000000;1269.00000000000;1242.00000000000;1255.00000000000;1238.00000000000;1269.00000000000;1312.00000000000;1303.00000000000;1417.00000000000;1378.00000000000;1338.00000000000;1404.00000000000;1441.00000000000;1376.00000000000;1372.00000000000;1415.00000000000;1393.00000000000;1365.00000000000;1467.00000000000;1484.00000000000;1483.00000000000;1422.00000000000;1419.00000000000;1492.00000000000;1524.00000000000;1548.00000000000;1551.00000000000;1579.00000000000;1640.00000000000;1655.00000000000;1812.00000000000;2046.00000000000;2149.00000000000;2164.00000000000;2193.00000000000;2322.00000000000;2376.00000000000;2348.00000000000;2312.00000000000;2197.00000000000;2100.00000000000;1943.00000000000;1934.00000000000;1976.00000000000;1774.00000000000;1559.00000000000;1715.00000000000;1902.00000000000;1656.00000000000;1653.00000000000;1792.00000000000;1811.00000000000;1794.00000000000;1649.00000000000;1647.00000000000;1708.00000000000;1707.00000000000;1798.00000000000;1819.00000000000;1806.00000000000;1819.00000000000;1817.00000000000;1814.00000000000;1820.00000000000;1823.00000000000;1840.00000000000;1850.00000000000;1824.00000000000;1817.00000000000;1815.00000000000;1866.00000000000;1828.00000000000;1798.00000000000;1792.00000000000;1782.00000000000;1828.00000000000;1851.00000000000;1832.00000000000;1800.00000000000;1810.00000000000;1843.00000000000;1806.00000000000;1859.00000000000;1854.00000000000;1830.00000000000;1840.00000000000
Accel Y : 2037.00000000000;2012.00000000000;2032.00000000000;2033.00000000000;2034.00000000000;2029.00000000000;2020.00000000000;2021.00000000000;2020.00000000000;2011.00000000000;2010.00000000000;2015.00000000000;2007.00000000000;2008.00000000000;2006.00000000000;2027.00000000000;2020.00000000000;2013.00000000000;2027.00000000000;2015.00000000000;2013.00000000000;2013.00000000000;1998.00000000000;1992.00000000000;2032.00000000000;2000.00000000000;2032.00000000000;2015.00000000000;2016.00000000000;2007.00000000000;2011.00000000000;2006.00000000000;2032.00000000000;2002.00000000000;1995.00000000000;1987.00000000000;1930.00000000000;1850.00000000000;1768.00000000000;1685.00000000000;1639.00000000000;1635.00000000000;1622.00000000000;1676.00000000000;1669.00000000000;1686.00000000000;1720.00000000000;1775.00000000000;1781.00000000000;1781.00000000000;1766.00000000000;1719.00000000000;1755.00000000000;1769.00000000000;1748.00000000000;1747.00000000000;1734.00000000000;1720.00000000000;1718.00000000000;1674.00000000000;1686.00000000000;1713.00000000000;1707.00000000000;1700.00000000000;1707.00000000000;1705.00000000000;1742.00000000000;1783.00000000000;1732.00000000000;1738.00000000000;1728.00000000000;1740.00000000000;1726.00000000000;1734.00000000000;1717.00000000000;1716.00000000000;1708.00000000000;1683.00000000000;1623.00000000000;1607.00000000000;1619.00000000000;1555.00000000000;1519.00000000000;1490.00000000000;1465.00000000000;1509.00000000000;1499.00000000000;1478.00000000000;1484.00000000000;1468.00000000000;1493.00000000000;1450.00000000000;1453.00000000000;1411.00000000000;1382.00000000000;1320.00000000000;1214.00000000000;1253.00000000000;1239.00000000000;1199.00000000000;1200.00000000000;1209.00000000000;1347.00000000000;1396.00000000000;1434.00000000000;1578.00000000000;1577.00000000000;1688.00000000000;1853.00000000000;1969.00000000000;1926.00000000000;2018.00000000000;2105.00000000000;2124.00000000000;2141.00000000000;2168.00000000000;2187.00000000000;2256.00000000000;2179.00000000000;2295.00000000000;2252.00000000000;2220.00000000000;2219.00000000000;2213.00000000000;2188.00000000000;2182.00000000000;2176.00000000000;2141.00000000000;2118.00000000000;2098.00000000000;2080.00000000000;2100.00000000000;2032.00000000000;2042.00000000000;2024.00000000000;1991.00000000000;1982.00000000000;1987.00000000000;1979.00000000000;1963.00000000000;1961.00000000000;1972.00000000000;1971.00000000000;1980.00000000000;1983.00000000000;1975.00000000000;1982.00000000000;1991.00000000000;1995.00000000000;1994.00000000000
Accel Z : 2656.00000000000;2661.00000000000;2675.00000000000;2698.00000000000;2667.00000000000;2650.00000000000;2649.00000000000;2662.00000000000;2644.00000000000;2664.00000000000;2665.00000000000;2657.00000000000;2681.00000000000;2671.00000000000;2649.00000000000;2654.00000000000;2667.00000000000;2655.00000000000;2648.00000000000;2646.00000000000;2665.00000000000;2660.00000000000;2670.00000000000;2678.00000000000;2675.00000000000;2683.00000000000;2666.00000000000;2673.00000000000;2697.00000000000;2732.00000000000;2717.00000000000;2763.00000000000;2787.00000000000;2774.00000000000;2727.00000000000;2677.00000000000;2537.00000000000;2378.00000000000;2148.00000000000;1827.00000000000;1553.00000000000;1322.00000000000;1128.00000000000;1101.00000000000;1014.00000000000;946.000000000000;976.000000000000;1079.00000000000;1096.00000000000;1144.00000000000;1207.00000000000;1296.00000000000;1335.00000000000;1425.00000000000;1517.00000000000;1602.00000000000;1725.00000000000;1891.00000000000;2004.00000000000;2041.00000000000;2110.00000000000;2214.00000000000;2339.00000000000;2405.00000000000;2506.00000000000;2526.00000000000;2589.00000000000;2625.00000000000;2629.00000000000;2617.00000000000;2589.00000000000;2656.00000000000;2699.00000000000;2701.00000000000;2647.00000000000;2702.00000000000;2743.00000000000;2659.00000000000;2633.00000000000;2593.00000000000;2548.00000000000;2538.00000000000;2528.00000000000;2485.00000000000;2359.00000000000;2263.00000000000;2186.00000000000;2137.00000000000;2043.00000000000;1914.00000000000;1874.00000000000;1795.00000000000;1771.00000000000;1681.00000000000;1573.00000000000;1506.00000000000;1476.00000000000;1408.00000000000;1350.00000000000;1320.00000000000;1371.00000000000;1519.00000000000;1657.00000000000;1737.00000000000;1855.00000000000;1906.00000000000;2044.00000000000;2298.00000000000;2280.00000000000;2248.00000000000;2379.00000000000;2572.00000000000;2609.00000000000;2710.00000000000;2908.00000000000;3072.00000000000;3180.00000000000;3208.00000000000;3348.00000000000;3353.00000000000;3340.00000000000;3280.00000000000;3331.00000000000;3263.00000000000;3168.00000000000;3049.00000000000;3001.00000000000;2928.00000000000;2825.00000000000;2747.00000000000;2688.00000000000;2611.00000000000;2568.00000000000;2587.00000000000;2597.00000000000;2570.00000000000;2549.00000000000;2553.00000000000;2556.00000000000;2584.00000000000;2611.00000000000;2610.00000000000;2603.00000000000;2665.00000000000;2667.00000000000;2670.00000000000;2683.00000000000;2667.00000000000;2667.00000000000;2691.00000000000
Gyro X : 1795.00000000000;1789.00000000000;1780.00000000000;1772.00000000000;1793.00000000000;1818.00000000000;1791.00000000000;1785.00000000000;1769.00000000000;1774.00000000000;1807.00000000000;1782.00000000000;1810.00000000000;1798.00000000000;1789.00000000000;1792.00000000000;1829.00000000000;1799.00000000000;1822.00000000000;1791.00000000000;1815.00000000000;1815.00000000000;1831.00000000000;1809.00000000000;1816.00000000000;1818.00000000000;1807.00000000000;1807.00000000000;1818.00000000000;1826.00000000000;1820.00000000000;1775.00000000000;1884.00000000000;2053.00000000000;2323.00000000000;2678.00000000000;3043.00000000000;3266.00000000000;3358.00000000000;3481.00000000000;3628.00000000000;3630.00000000000;3529.00000000000;3584.00000000000;3351.00000000000;3187.00000000000;3040.00000000000;2860.00000000000;2716.00000000000;2694.00000000000;2511.00000000000;2388.00000000000;2296.00000000000;2242.00000000000;2190.00000000000;2082.00000000000;1956.00000000000;1842.00000000000;1781.00000000000;1731.00000000000;1614.00000000000;1534.00000000000;1483.00000000000;1385.00000000000;1344.00000000000;1269.00000000000;1242.00000000000;1255.00000000000;1238.00000000000;1269.00000000000;1312.00000000000;1303.00000000000;1417.00000000000;1378.00000000000;1338.00000000000;1404.00000000000;1441.00000000000;1376.00000000000;1372.00000000000;1415.00000000000;1393.00000000000;1365.00000000000;1467.00000000000;1484.00000000000;1483.00000000000;1422.00000000000;1419.00000000000;1492.00000000000;1524.00000000000;1548.00000000000;1551.00000000000;1579.00000000000;1640.00000000000;1655.00000000000;1812.00000000000;2046.00000000000;2149.00000000000;2164.00000000000;2193.00000000000;2322.00000000000;2376.00000000000;2348.00000000000;2312.00000000000;2197.00000000000;2100.00000000000;1943.00000000000;1934.00000000000;1976.00000000000;1774.00000000000;1559.00000000000;1715.00000000000;1902.00000000000;1656.00000000000;1653.00000000000;1792.00000000000;1811.00000000000;1794.00000000000;1649.00000000000;1647.00000000000;1708.00000000000;1707.00000000000;1798.00000000000;1819.00000000000;1806.00000000000;1819.00000000000;1817.00000000000;1814.00000000000;1820.00000000000;1823.00000000000;1840.00000000000;1850.00000000000;1824.00000000000;1817.00000000000;1815.00000000000;1866.00000000000;1828.00000000000;1798.00000000000;1792.00000000000;1782.00000000000;1828.00000000000;1851.00000000000;1832.00000000000;1800.00000000000;1810.00000000000;1843.00000000000;1806.00000000000;1859.00000000000;1854.00000000000;1830.00000000000;1840.00000000000
Gyro Y : 2037.00000000000;2012.00000000000;2032.00000000000;2033.00000000000;2034.00000000000;2029.00000000000;2020.00000000000;2021.00000000000;2020.00000000000;2011.00000000000;2010.00000000000;2015.00000000000;2007.00000000000;2008.00000000000;2006.00000000000;2027.00000000000;2020.00000000000;2013.00000000000;2027.00000000000;2015.00000000000;2013.00000000000;2013.00000000000;1998.00000000000;1992.00000000000;2032.00000000000;2000.00000000000;2032.00000000000;2015.00000000000;2016.00000000000;2007.00000000000;2011.00000000000;2006.00000000000;2032.00000000000;2002.00000000000;1995.00000000000;1987.00000000000;1930.00000000000;1850.00000000000;1768.00000000000;1685.00000000000;1639.00000000000;1635.00000000000;1622.00000000000;1676.00000000000;1669.00000000000;1686.00000000000;1720.00000000000;1775.00000000000;1781.00000000000;1781.00000000000;1766.00000000000;1719.00000000000;1755.00000000000;1769.00000000000;1748.00000000000;1747.00000000000;1734.00000000000;1720.00000000000;1718.00000000000;1674.00000000000;1686.00000000000;1713.00000000000;1707.00000000000;1700.00000000000;1707.00000000000;1705.00000000000;1742.00000000000;1783.00000000000;1732.00000000000;1738.00000000000;1728.00000000000;1740.00000000000;1726.00000000000;1734.00000000000;1717.00000000000;1716.00000000000;1708.00000000000;1683.00000000000;1623.00000000000;1607.00000000000;1619.00000000000;1555.00000000000;1519.00000000000;1490.00000000000;1465.00000000000;1509.00000000000;1499.00000000000;1478.00000000000;1484.00000000000;1468.00000000000;1493.00000000000;1450.00000000000;1453.00000000000;1411.00000000000;1382.00000000000;1320.00000000000;1214.00000000000;1253.00000000000;1239.00000000000;1199.00000000000;1200.00000000000;1209.00000000000;1347.00000000000;1396.00000000000;1434.00000000000;1578.00000000000;1577.00000000000;1688.00000000000;1853.00000000000;1969.00000000000;1926.00000000000;2018.00000000000;2105.00000000000;2124.00000000000;2141.00000000000;2168.00000000000;2187.00000000000;2256.00000000000;2179.00000000000;2295.00000000000;2252.00000000000;2220.00000000000;2219.00000000000;2213.00000000000;2188.00000000000;2182.00000000000;2176.00000000000;2141.00000000000;2118.00000000000;2098.00000000000;2080.00000000000;2100.00000000000;2032.00000000000;2042.00000000000;2024.00000000000;1991.00000000000;1982.00000000000;1987.00000000000;1979.00000000000;1963.00000000000;1961.00000000000;1972.00000000000;1971.00000000000;1980.00000000000;1983.00000000000;1975.00000000000;1982.00000000000;1991.00000000000;1995.00000000000;1994.00000000000
Gyro Z : 2656.00000000000;2661.00000000000;2675.00000000000;2698.00000000000;2667.00000000000;2650.00000000000;2649.00000000000;2662.00000000000;2644.00000000000;2664.00000000000;2665.00000000000;2657.00000000000;2681.00000000000;2671.00000000000;2649.00000000000;2654.00000000000;2667.00000000000;2655.00000000000;2648.00000000000;2646.00000000000;2665.00000000000;2660.00000000000;2670.00000000000;2678.00000000000;2675.00000000000;2683.00000000000;2666.00000000000;2673.00000000000;2697.00000000000;2732.00000000000;2717.00000000000;2763.00000000000;2787.00000000000;2774.00000000000;2727.00000000000;2677.00000000000;2537.00000000000;2378.00000000000;2148.00000000000;1827.00000000000;1553.00000000000;1322.00000000000;1128.00000000000;1101.00000000000;1014.00000000000;946.000000000000;976.000000000000;1079.00000000000;1096.00000000000;1144.00000000000;1207.00000000000;1296.00000000000;1335.00000000000;1425.00000000000;1517.00000000000;1602.00000000000;1725.00000000000;1891.00000000000;2004.00000000000;2041.00000000000;2110.00000000000;2214.00000000000;2339.00000000000;2405.00000000000;2506.00000000000;2526.00000000000;2589.00000000000;2625.00000000000;2629.00000000000;2617.00000000000;2589.00000000000;2656.00000000000;2699.00000000000;2701.00000000000;2647.00000000000;2702.00000000000;2743.00000000000;2659.00000000000;2633.00000000000;2593.00000000000;2548.00000000000;2538.00000000000;2528.00000000000;2485.00000000000;2359.00000000000;2263.00000000000;2186.00000000000;2137.00000000000;2043.00000000000;1914.00000000000;1874.00000000000;1795.00000000000;1771.00000000000;1681.00000000000;1573.00000000000;1506.00000000000;1476.00000000000;1408.00000000000;1350.00000000000;1320.00000000000;1371.00000000000;1519.00000000000;1657.00000000000;1737.00000000000;1855.00000000000;1906.00000000000;2044.00000000000;2298.00000000000;2280.00000000000;2248.00000000000;2379.00000000000;2572.00000000000;2609.00000000000;2710.00000000000;2908.00000000000;3072.00000000000;3180.00000000000;3208.00000000000;3348.00000000000;3353.00000000000;3340.00000000000;3280.00000000000;3331.00000000000;3263.00000000000;3168.00000000000;3049.00000000000;3001.00000000000;2928.00000000000;2825.00000000000;2747.00000000000;2688.00000000000;2611.00000000000;2568.00000000000;2587.00000000000;2597.00000000000;2570.00000000000;2549.00000000000;2553.00000000000;2556.00000000000;2584.00000000000;2611.00000000000;2610.00000000000;2603.00000000000;2665.00000000000;2667.00000000000;2670.00000000000;2683.00000000000;2667.00000000000;2667.00000000000;2691.00000000000
