COMMAND 1 SAMPLE 1
Accel X : 1869.00000000000;1874.00000000000;1855.00000000000;1887.00000000000;1843.00000000000;1854.00000000000;1860.00000000000;1852.00000000000;1862.00000000000;1845.00000000000;1854.00000000000;1870.00000000000;1877.00000000000;1871.00000000000;1871.00000000000;1867.00000000000;1885.00000000000;1862.00000000000;1856.00000000000;1837.00000000000;1840.00000000000;1866.00000000000;1854.00000000000;1850.00000000000;1858.00000000000;1847.00000000000;1835.00000000000;1849.00000000000;1866.00000000000;1864.00000000000;1830.00000000000;1837.00000000000;1848.00000000000;1844.00000000000;1859.00000000000;1867.00000000000;1854.00000000000;1839.00000000000;1842.00000000000;1833.00000000000;1852.00000000000;1855.00000000000;1846.00000000000;1831.00000000000;1806.00000000000;1860.00000000000;1936.00000000000;1966.00000000000;1982.00000000000;2015.00000000000;2064.00000000000;2133.00000000000;2157.00000000000;2186.00000000000;2156.00000000000;2183.00000000000;2189.00000000000;2133.00000000000;2155.00000000000;2021.00000000000;1930.00000000000;1944.00000000000;1929.00000000000;1936.00000000000;1969.00000000000;1942.00000000000;1931.00000000000;1883.00000000000;1829.00000000000;1730.00000000000;1586.00000000000;1417.00000000000;1185.00000000000;850.000000000000;542.000000000000;407.000000000000;601.000000000000;856.000000000000;724.000000000000;1057.00000000000;1252.00000000000;1303.00000000000;1263.00000000000;1388.00000000000;1517.00000000000;1596.00000000000;1647.00000000000;1765.00000000000;1836.00000000000;1902.00000000000;2006.00000000000;2045.00000000000;1950.00000000000;2046.00000000000;2020.00000000000;2011.00000000000;2124.00000000000;2283.00000000000;2381.00000000000;2140.00000000000;1914.00000000000;1670.00000000000;1850.00000000000;1813.00000000000;1865.00000000000;2135.00000000000;2083.00000000000;2023.00000000000;1997.00000000000;1937.00000000000;1975.00000000000;2017.00000000000;2080.00000000000;1993.00000000000;2017.00000000000;1990.00000000000;2035.00000000000;2041.00000000000;2034.00000000000;2017.00000000000;2020.00000000000;2015.00000000000;1989.00000000000;1972.00000000000;1966.00000000000;1997.00000000000;2008.00000000000;2009.00000000000;2023.00000000000;2000.00000000000;2009.00000000000;2008.00000000000;1974.00000000000;1990.00000000000;1996.00000000000;1981.00000000000;1977.00000000000;1970.00000000000;1979.00000000000;2003.00000000000;2028.00000000000;1983.00000000000;1972.00000000000;1988.00000000000;1985.00000000000;1972.00000000000;1975.00000000000;1972.00000000000;1991.00000000000;1996.00000000000
Accel Y : 2127.00000000000;2142.00000000000;2148.00000000000;2132.00000000000;2142.00000000000;2145.00000000000;2146.00000000000;2139.00000000000;2134.00000000000;2137.00000000000;2143.00000000000;2143.00000000000;2149.00000000000;2135.00000000000;2154.00000000000;2141.00000000000;2129.00000000000;2140.00000000000;2135.00000000000;2148.00000000000;2139.00000000000;2113.00000000000;2131.00000000000;2114.00000000000;2124.00000000000;2125.00000000000;2132.00000000000;2137.00000000000;2145.00000000000;2143.00000000000;2132.00000000000;2158.00000000000;2132.00000000000;2132.00000000000;2157.00000000000;2119.00000000000;2124.00000000000;2153.00000000000;2134.00000000000;2119.00000000000;2125.00000000000;2143.00000000000;2155.00000000000;2188.00000000000;2145.00000000000;2178.00000000000;2183.00000000000;2182.00000000000;2192.00000000000;2172.00000000000;2109.00000000000;2118.00000000000;2118.00000000000;2121.00000000000;2161.00000000000;2114.00000000000;2104.00000000000;2171.00000000000;2114.00000000000;2031.00000000000;1937.00000000000;1941.00000000000;1889.00000000000;1859.00000000000;1834.00000000000;1747.00000000000;1725.00000000000;1714.00000000000;1620.00000000000;1576.00000000000;1542.00000000000;1480.00000000000;1398.00000000000;1370.00000000000;1288.00000000000;1276.00000000000;1452.00000000000;1386.00000000000;1289.00000000000;1303.00000000000;1321.00000000000;1329.00000000000;1316.00000000000;1305.00000000000;1320.00000000000;1289.00000000000;1294.00000000000;1368.00000000000;1458.00000000000;1503.00000000000;1596.00000000000;1673.00000000000;1784.00000000000;1879.00000000000;1934.00000000000;2046.00000000000;2110.00000000000;2232.00000000000;2358.00000000000;2438.00000000000;2466.00000000000;2448.00000000000;2530.00000000000;2409.00000000000;2239.00000000000;2227.00000000000;2157.00000000000;2124.00000000000;2120.00000000000;2115.00000000000;2118.00000000000;2109.00000000000;2079.00000000000;2086.00000000000;2076.00000000000;2023.00000000000;2021.00000000000;1976.00000000000;2028.00000000000;2007.00000000000;1970.00000000000;1985.00000000000;1985.00000000000;2020.00000000000;1992.00000000000;2002.00000000000;1981.00000000000;1978.00000000000;1986.00000000000;1969.00000000000;1971.00000000000;1963.00000000000;1967.00000000000;1981.00000000000;1955.00000000000;1939.00000000000;1954.00000000000;1946.00000000000;1982.00000000000;1979.00000000000;1977.00000000000;2009.00000000000;1989.00000000000;2002.00000000000;1997.00000000000;1999.00000000000;1968.00000000000;2009.00000000000;1996.00000000000;1998.00000000000
Accel Z : 2693.00000000000;2681.00000000000;2697.00000000000;2681.00000000000;2686.00000000000;2682.00000000000;2685.00000000000;2711.00000000000;2683.00000000000;2686.00000000000;2674.00000000000;2662.00000000000;2670.00000000000;2667.00000000000;2666.00000000000;2677.00000000000;2662.00000000000;2669.00000000000;2665.00000000000;2662.00000000000;2678.00000000000;2667.00000000000;2677.00000000000;2684.00000000000;2681.00000000000;2678.00000000000;2680.00000000000;2660.00000000000;2675.00000000000;2669.00000000000;2689.00000000000;2687.00000000000;2676.00000000000;2706.00000000000;2691.00000000000;2710.00000000000;2705.00000000000;2718.00000000000;2759.00000000000;2792.00000000000;2830.00000000000;2849.00000000000;2926.00000000000;2973.00000000000;2983.00000000000;3060.00000000000;3114.00000000000;3104.00000000000;3124.00000000000;3075.00000000000;3032.00000000000;3014.00000000000;2947.00000000000;2910.00000000000;2847.00000000000;2714.00000000000;2616.00000000000;2476.00000000000;2356.00000000000;2165.00000000000;2029.00000000000;1860.00000000000;1706.00000000000;1610.00000000000;1471.00000000000;1324.00000000000;1211.00000000000;1015.00000000000;882.000000000000;785.000000000000;638.000000000000;490.000000000000;296.000000000000;147.000000000000;48.0000000000000;123.000000000000;533.000000000000;644.000000000000;493.000000000000;666.000000000000;717.000000000000;753.000000000000;706.000000000000;742.000000000000;889.000000000000;939.000000000000;956.000000000000;1055.00000000000;1184.00000000000;1340.00000000000;1402.00000000000;1472.00000000000;1587.00000000000;1743.00000000000;1820.00000000000;1887.00000000000;1999.00000000000;2108.00000000000;2371.00000000000;2379.00000000000;2515.00000000000;2735.00000000000;3012.00000000000;3278.00000000000;3347.00000000000;3385.00000000000;3347.00000000000;3289.00000000000;3164.00000000000;3088.00000000000;3032.00000000000;3015.00000000000;2965.00000000000;2857.00000000000;2787.00000000000;2735.00000000000;2704.00000000000;2671.00000000000;2632.00000000000;2595.00000000000;2609.00000000000;2614.00000000000;2623.00000000000;2660.00000000000;2626.00000000000;2620.00000000000;2661.00000000000;2626.00000000000;2686.00000000000;2680.00000000000;2679.00000000000;2675.00000000000;2670.00000000000;2637.00000000000;2677.00000000000;2652.00000000000;2691.00000000000;2662.00000000000;2655.00000000000;2660.00000000000;2670.00000000000;2634.00000000000;2660.00000000000;2642.00000000000;2664.00000000000;2645.00000000000;2663.00000000000;2671.00000000000;2652.00000000000;2691.00000000000
Gyro X : 1869.00000000000;1874.00000000000;1855.00000000000;1887.00000000000;1843.00000000000;1854.00000000000;1860.00000000000;1852.00000000000;1862.00000000000;1845.00000000000;1854.00000000000;1870.00000000000;1877.00000000000;1871.00000000000;1871.00000000000;1867.00000000000;1885.00000000000;1862.00000000000;1856.00000000000;1837.00000000000;1840.00000000000;1866.00000000000;1854.00000000000;1850.00000000000;1858.00000000000;1847.00000000000;1835.00000000000;1849.00000000000;1866.00000000000;1864.00000000000;1830.00000000000;1837.00000000000;1848.00000000000;1844.00000000000;1859.00000000000;1867.00000000000;1854.00000000000;1839.00000000000;1842.00000000000;1833.00000000000;1852.00000000000;1855.00000000000;1846.00000000000;1831.00000000000;1806.00000000000;1860.00000000000;1936.00000000000;1966.00000000000;1982.00000000000;2015.00000000000;2064.00000000000;2133.00000000000;2157.00000000000;2186.00000000000;2156.00000000000;2183.00000000000;2189.00000000000;2133.00000000000;2155.00000000000;2021.00000000000;1930.00000000000;1944.00000000000;1929.00000000000;1936.00000000000;1969.00000000000;1942.00000000000;1931.00000000000;1883.00000000000;1829.00000000000;1730.00000000000;1586.00000000000;1417.00000000000;1185.00000000000;850.000000000000;542.000000000000;407.000000000000;601.000000000000;856.000000000000;724.000000000000;1057.00000000000;1252.00000000000;1303.00000000000;1263.00000000000;1388.00000000000;1517.00000000000;1596.00000000000;1647.00000000000;1765.00000000000;1836.00000000000;1902.00000000000;2006.00000000000;2045.00000000000;1950.00000000000;2046.00000000000;2020.00000000000;2011.00000000000;2124.00000000000;2283.00000000000;2381.00000000000;2140.00000000000;1914.00000000000;1670.00000000000;1850.00000000000;1813.00000000000;1865.00000000000;2135.00000000000;2083.00000000000;2023.00000000000;1997.00000000000;1937.00000000000;1975.00000000000;2017.00000000000;2080.00000000000;1993.00000000000;2017.00000000000;1990.00000000000;2035.00000000000;2041.00000000000;2034.00000000000;2017.00000000000;2020.00000000000;2015.00000000000;1989.00000000000;1972.00000000000;1966.00000000000;1997.00000000000;2008.00000000000;2009.00000000000;2023.00000000000;2000.00000000000;2009.00000000000;2008.00000000000;1974.00000000000;1990.00000000000;1996.00000000000;1981.00000000000;1977.00000000000;1970.00000000000;1979.00000000000;2003.00000000000;2028.00000000000;1983.00000000000;1972.00000000000;1988.00000000000;1985.00000000000;1972.00000000000;1975.00000000000;1972.00000000000;1991.00000000000;1996.00000000000
Gyro Y : 2127.00000000000;2142.00000000000;2148.00000000000;2132.00000000000;2142.00000000000;2145.00000000000;2146.00000000000;2139.00000000000;2134.00000000000;2137.00000000000;2143.00000000000;2143.00000000000;2149.00000000000;2135.00000000000;2154.00000000000;2141.00000000000;2129.00000000000;2140.00000000000;2135.00000000000;2148.00000000000;2139.00000000000;2113.00000000000;2131.00000000000;2114.00000000000;2124.00000000000;2125.00000000000;2132.00000000000;2137.00000000000;2145.00000000000;2143.00000000000;2132.00000000000;2158.00000000000;2132.00000000000;2132.00000000000;2157.00000000000;2119.00000000000;2124.00000000000;2153.00000000000;2134.00000000000;2119.00000000000;2125.00000000000;2143.00000000000;2155.00000000000;2188.00000000000;2145.00000000000;2178.00000000000;2183.00000000000;2182.00000000000;2192.00000000000;2172.00000000000;2109.00000000000;2118.00000000000;2118.00000000000;2121.00000000000;2161.00000000000;2114.00000000000;2104.00000000000;2171.00000000000;2114.00000000000;2031.00000000000;1937.00000000000;1941.00000000000;1889.00000000000;1859.00000000000;1834.00000000000;1747.00000000000;1725.00000000000;1714.00000000000;1620.00000000000;1576.00000000000;1542.00000000000;1480.00000000000;1398.00000000000;1370.00000000000;1288.00000000000;1276.00000000000;1452.00000000000;1386.00000000000;1289.00000000000;1303.00000000000;1321.00000000000;1329.00000000000;1316.00000000000;1305.00000000000;1320.00000000000;1289.00000000000;1294.00000000000;1368.00000000000;1458.00000000000;1503.00000000000;1596.00000000000;1673.00000000000;1784.00000000000;1879.00000000000;1934.00000000000;2046.00000000000;2110.00000000000;2232.00000000000;2358.00000000000;2438.00000000000;2466.00000000000;2448.00000000000;2530.00000000000;2409.00000000000;2239.00000000000;2227.00000000000;2157.00000000000;2124.00000000000;2120.00000000000;2115.00000000000;2118.00000000000;2109.00000000000;2079.00000000000;2086.00000000000;2076.00000000000;2023.00000000000;2021.00000000000;1976.00000000000;2028.00000000000;2007.00000000000;1970.00000000000;1985.00000000000;1985.00000000000;2020.00000000000;1992.00000000000;2002.00000000000;1981.00000000000;1978.00000000000;1986.00000000000;1969.00000000000;1971.00000000000;1963.00000000000;1967.00000000000;1981.00000000000;1955.00000000000;1939.00000000000;1954.00000000000;1946.00000000000;1982.00000000000;1979.00000000000;1977.00000000000;2009.00000000000;1989.00000000000;2002.00000000000;1997.00000000000;1999.00000000000;1968.00000000000;2009.00000000000;1996.00000000000;1998.00000000000
Gyro Z : 2693.00000000000;2681.00000000000;2697.00000000000;2681.00000000000;2686.00000000000;2682.00000000000;2685.00000000000;2711.00000000000;2683.00000000000;2686.00000000000;2674.00000000000;2662.00000000000;2670.00000000000;2667.00000000000;2666.00000000000;2677.00000000000;2662.00000000000;2669.00000000000;2665.00000000000;2662.00000000000;2678.00000000000;2667.00000000000;2677.00000000000;2684.00000000000;2681.00000000000;2678.00000000000;2680.00000000000;2660.00000000000;2675.00000000000;2669.00000000000;2689.00000000000;2687.00000000000;2676.00000000000;2706.00000000000;2691.00000000000;2710.00000000000;2705.00000000000;2718.00000000000;2759.00000000000;2792.00000000000;2830.00000000000;2849.00000000000;2926.00000000000;2973.00000000000;2983.00000000000;3060.00000000000;3114.00000000000;3104.00000000000;3124.00000000000;3075.00000000000;3032.00000000000;3014.00000000000;2947.00000000000;2910.00000000000;2847.00000000000;2714.00000000000;2616.00000000000;2476.00000000000;2356.00000000000;2165.00000000000;2029.00000000000;1860.00000000000;1706.00000000000;1610.00000000000;1471.00000000000;1324.00000000000;1211.00000000000;1015.00000000000;882.000000000000;785.000000000000;638.000000000000;490.000000000000;296.000000000000;147.000000000000;48.0000000000000;123.000000000000;533.000000000000;644.000000000000;493.000000000000;666.000000000000;717.000000000000;753.000000000000;706.000000000000;742.000000000000;889.000000000000;939.000000000000;956.000000000000;1055.00000000000;1184.00000000000;1340.00000000000;1402.00000000000;1472.00000000000;1587.00000000000;1743.00000000000;1820.00000000000;1887.00000000000;1999.00000000000;2108.00000000000;2371.00000000000;2379.00000000000;2515.00000000000;2735.00000000000;3012.00000000000;3278.00000000000;3347.00000000000;3385.00000000000;3347.00000000000;3289.00000000000;3164.00000000000;3088.00000000000;3032.00000000000;3015.00000000000;2965.00000000000;2857.00000000000;2787.00000000000;2735.00000000000;2704.00000000000;2671.00000000000;2632.00000000000;2595.00000000000;2609.00000000000;2614.00000000000;2623.00000000000;2660.00000000000;2626.00000000000;2620.00000000000;2661.00000000000;2626.00000000000;2686.00000000000;2680.00000000000;2679.00000000000;2675.00000000000;2670.00000000000;2637.00000000000;2677.00000000000;2652.00000000000;2691.00000000000;2662.00000000000;2655.00000000000;2660.00000000000;2670.00000000000;2634.00000000000;2660.00000000000;2642.00000000000;2664.00000000000;2645.00000000000;2663.00000000000;2671.00000000000;2652.00000000000;2691.00000000000
