COMMAND 4 SAMPLE 1
Accel X : 1938.00000000000;1941.00000000000;1917.00000000000;1940.00000000000;1943.00000000000;1949.00000000000;1936.00000000000;1912.00000000000;1945.00000000000;1984.00000000000;1946.00000000000;1919.00000000000;1944.00000000000;1947.00000000000;1940.00000000000;1940.00000000000;1958.00000000000;1941.00000000000;1925.00000000000;1931.00000000000;1924.00000000000;1930.00000000000;1947.00000000000;1926.00000000000;1936.00000000000;1937.00000000000;1956.00000000000;1936.00000000000;1924.00000000000;1926.00000000000;1929.00000000000;1914.00000000000;1915.00000000000;1934.00000000000;1931.00000000000;1930.00000000000;1912.00000000000;1881.00000000000;1904.00000000000;1854.00000000000;1836.00000000000;1839.00000000000;1795.00000000000;1739.00000000000;1747.00000000000;1794.00000000000;1807.00000000000;1788.00000000000;1760.00000000000;1740.00000000000;1733.00000000000;1719.00000000000;1756.00000000000;1822.00000000000;1773.00000000000;1733.00000000000;1661.00000000000;1597.00000000000;1404.00000000000;1343.00000000000;1447.00000000000;1481.00000000000;1510.00000000000;1490.00000000000;1609.00000000000;1565.00000000000;1642.00000000000;1677.00000000000;1656.00000000000;1613.00000000000;1625.00000000000;1672.00000000000;1743.00000000000;1726.00000000000;1774.00000000000;1839.00000000000;1847.00000000000;1755.00000000000;1660.00000000000;1645.00000000000;1707.00000000000;1771.00000000000;1613.00000000000;1635.00000000000;1678.00000000000;1682.00000000000;1656.00000000000;1646.00000000000;1685.00000000000;1723.00000000000;1824.00000000000;1830.00000000000;1810.00000000000;1822.00000000000;1839.00000000000;1873.00000000000;1849.00000000000;1788.00000000000;1889.00000000000;1908.00000000000;1871.00000000000;1857.00000000000;1908.00000000000;1972.00000000000;1962.00000000000;1905.00000000000;1952.00000000000;2019.00000000000;2007.00000000000;1982.00000000000;1995.00000000000;2006.00000000000;2001.00000000000;2004.00000000000;1991.00000000000;1973.00000000000;1939.00000000000;1958.00000000000;1976.00000000000;1985.00000000000;1948.00000000000;1945.00000000000;1969.00000000000;1951.00000000000;1948.00000000000;1941.00000000000;1945.00000000000;1929.00000000000;1928.00000000000;1930.00000000000;1969.00000000000;1957.00000000000;1924.00000000000;1961.00000000000;1945.00000000000;1987.00000000000;1966.00000000000;1950.00000000000;1955.00000000000;1984.00000000000;1979.00000000000;1947.00000000000;1937.00000000000;1958.00000000000;1962.00000000000;2008.00000000000;1935.00000000000;1939.00000000000;1925.00000000000;1948.00000000000
Accel Y : 1963.00000000000;1961.00000000000;1960.00000000000;1967.00000000000;1947.00000000000;1942.00000000000;1957.00000000000;1955.00000000000;1945.00000000000;1963.00000000000;1944.00000000000;1950.00000000000;1961.00000000000;1960.00000000000;1971.00000000000;1962.00000000000;1945.00000000000;1954.00000000000;1964.00000000000;1943.00000000000;1947.00000000000;1949.00000000000;1960.00000000000;1985.00000000000;1958.00000000000;1957.00000000000;1971.00000000000;1945.00000000000;1950.00000000000;1938.00000000000;1959.00000000000;1927.00000000000;1941.00000000000;1941.00000000000;1927.00000000000;1918.00000000000;1949.00000000000;1939.00000000000;1930.00000000000;1978.00000000000;1964.00000000000;1991.00000000000;2015.00000000000;2089.00000000000;2162.00000000000;2293.00000000000;2415.00000000000;2517.00000000000;2614.00000000000;2815.00000000000;3011.00000000000;3147.00000000000;3341.00000000000;3587.00000000000;3782.00000000000;3867.00000000000;4008.00000000000;4069.00000000000;4071.00000000000;4069.00000000000;4006.00000000000;3883.00000000000;3775.00000000000;3695.00000000000;3571.00000000000;3391.00000000000;3312.00000000000;3228.00000000000;3221.00000000000;3224.00000000000;3333.00000000000;3351.00000000000;3397.00000000000;3467.00000000000;3514.00000000000;3605.00000000000;3697.00000000000;3715.00000000000;3724.00000000000;3673.00000000000;3611.00000000000;3647.00000000000;3584.00000000000;3436.00000000000;3356.00000000000;3311.00000000000;3221.00000000000;3126.00000000000;2954.00000000000;2807.00000000000;2701.00000000000;2595.00000000000;2444.00000000000;2318.00000000000;2244.00000000000;2195.00000000000;2107.00000000000;1964.00000000000;1870.00000000000;1886.00000000000;1806.00000000000;1716.00000000000;1728.00000000000;1723.00000000000;1682.00000000000;1669.00000000000;1686.00000000000;1756.00000000000;1686.00000000000;1682.00000000000;1711.00000000000;1730.00000000000;1710.00000000000;1717.00000000000;1739.00000000000;1741.00000000000;1731.00000000000;1738.00000000000;1770.00000000000;1765.00000000000;1738.00000000000;1768.00000000000;1759.00000000000;1745.00000000000;1767.00000000000;1774.00000000000;1777.00000000000;1800.00000000000;1779.00000000000;1789.00000000000;1789.00000000000;1818.00000000000;1792.00000000000;1815.00000000000;1786.00000000000;1804.00000000000;1796.00000000000;1770.00000000000;1784.00000000000;1790.00000000000;1801.00000000000;1787.00000000000;1783.00000000000;1774.00000000000;1805.00000000000;1771.00000000000;1802.00000000000;1785.00000000000;1804.00000000000;1802.00000000000
Accel Z : 2648.00000000000;2643.00000000000;2648.00000000000;2650.00000000000;2675.00000000000;2629.00000000000;2656.00000000000;2648.00000000000;2647.00000000000;2642.00000000000;2666.00000000000;2656.00000000000;2683.00000000000;2685.00000000000;2692.00000000000;2670.00000000000;2665.00000000000;2702.00000000000;2674.00000000000;2665.00000000000;2674.00000000000;2667.00000000000;2657.00000000000;2668.00000000000;2671.00000000000;2646.00000000000;2646.00000000000;2655.00000000000;2669.00000000000;2628.00000000000;2648.00000000000;2623.00000000000;2593.00000000000;2572.00000000000;2542.00000000000;2483.00000000000;2405.00000000000;2351.00000000000;2254.00000000000;2171.00000000000;2097.00000000000;2020.00000000000;1929.00000000000;1849.00000000000;1788.00000000000;1798.00000000000;1756.00000000000;1745.00000000000;1789.00000000000;1819.00000000000;1847.00000000000;1762.00000000000;1896.00000000000;1942.00000000000;2008.00000000000;2136.00000000000;2314.00000000000;2522.00000000000;2531.00000000000;2616.00000000000;2541.00000000000;2752.00000000000;2865.00000000000;2918.00000000000;3003.00000000000;3008.00000000000;3082.00000000000;3029.00000000000;2888.00000000000;2743.00000000000;2618.00000000000;2548.00000000000;2485.00000000000;2412.00000000000;2373.00000000000;2355.00000000000;2369.00000000000;2344.00000000000;2279.00000000000;2262.00000000000;2336.00000000000;2382.00000000000;2292.00000000000;2293.00000000000;2297.00000000000;2353.00000000000;2324.00000000000;2221.00000000000;2159.00000000000;2187.00000000000;2225.00000000000;2140.00000000000;2069.00000000000;2053.00000000000;2085.00000000000;2016.00000000000;1984.00000000000;1968.00000000000;2017.00000000000;2038.00000000000;1938.00000000000;1985.00000000000;2085.00000000000;2175.00000000000;2218.00000000000;2237.00000000000;2347.00000000000;2398.00000000000;2441.00000000000;2504.00000000000;2550.00000000000;2561.00000000000;2607.00000000000;2632.00000000000;2656.00000000000;2649.00000000000;2639.00000000000;2640.00000000000;2655.00000000000;2652.00000000000;2619.00000000000;2648.00000000000;2593.00000000000;2631.00000000000;2639.00000000000;2621.00000000000;2616.00000000000;2609.00000000000;2607.00000000000;2619.00000000000;2644.00000000000;2652.00000000000;2648.00000000000;2658.00000000000;2671.00000000000;2641.00000000000;2635.00000000000;2648.00000000000;2634.00000000000;2653.00000000000;2631.00000000000;2613.00000000000;2609.00000000000;2640.00000000000;2634.00000000000;2634.00000000000;2596.00000000000;2602.00000000000;2600.00000000000;2619.00000000000
Gyro X : 1938.00000000000;1941.00000000000;1917.00000000000;1940.00000000000;1943.00000000000;1949.00000000000;1936.00000000000;1912.00000000000;1945.00000000000;1984.00000000000;1946.00000000000;1919.00000000000;1944.00000000000;1947.00000000000;1940.00000000000;1940.00000000000;1958.00000000000;1941.00000000000;1925.00000000000;1931.00000000000;1924.00000000000;1930.00000000000;1947.00000000000;1926.00000000000;1936.00000000000;1937.00000000000;1956.00000000000;1936.00000000000;1924.00000000000;1926.00000000000;1929.00000000000;1914.00000000000;1915.00000000000;1934.00000000000;1931.00000000000;1930.00000000000;1912.00000000000;1881.00000000000;1904.00000000000;1854.00000000000;1836.00000000000;1839.00000000000;1795.00000000000;1739.00000000000;1747.00000000000;1794.00000000000;1807.00000000000;1788.00000000000;1760.00000000000;1740.00000000000;1733.00000000000;1719.00000000000;1756.00000000000;1822.00000000000;1773.00000000000;1733.00000000000;1661.00000000000;1597.00000000000;1404.00000000000;1343.00000000000;1447.00000000000;1481.00000000000;1510.00000000000;1490.00000000000;1609.00000000000;1565.00000000000;1642.00000000000;1677.00000000000;1656.00000000000;1613.00000000000;1625.00000000000;1672.00000000000;1743.00000000000;1726.00000000000;1774.00000000000;1839.00000000000;1847.00000000000;1755.00000000000;1660.00000000000;1645.00000000000;1707.00000000000;1771.00000000000;1613.00000000000;1635.00000000000;1678.00000000000;1682.00000000000;1656.00000000000;1646.00000000000;1685.00000000000;1723.00000000000;1824.00000000000;1830.00000000000;1810.00000000000;1822.00000000000;1839.00000000000;1873.00000000000;1849.00000000000;1788.00000000000;1889.00000000000;1908.00000000000;1871.00000000000;1857.00000000000;1908.00000000000;1972.00000000000;1962.00000000000;1905.00000000000;1952.00000000000;2019.00000000000;2007.00000000000;1982.00000000000;1995.00000000000;2006.00000000000;2001.00000000000;2004.00000000000;1991.00000000000;1973.00000000000;1939.00000000000;1958.00000000000;1976.00000000000;1985.00000000000;1948.00000000000;1945.00000000000;1969.00000000000;1951.00000000000;1948.00000000000;1941.00000000000;1945.00000000000;1929.00000000000;1928.00000000000;1930.00000000000;1969.00000000000;1957.00000000000;1924.00000000000;1961.00000000000;1945.00000000000;1987.00000000000;1966.00000000000;1950.00000000000;1955.00000000000;1984.00000000000;1979.00000000000;1947.00000000000;1937.00000000000;1958.00000000000;1962.00000000000;2008.00000000000;1935.00000000000;1939.00000000000;1925.00000000000;1948.00000000000
Gyro Y : 1963.00000000000;1961.00000000000;1960.00000000000;1967.00000000000;1947.00000000000;1942.00000000000;1957.00000000000;1955.00000000000;1945.00000000000;1963.00000000000;1944.00000000000;1950.00000000000;1961.00000000000;1960.00000000000;1971.00000000000;1962.00000000000;1945.00000000000;1954.00000000000;1964.00000000000;1943.00000000000;1947.00000000000;1949.00000000000;1960.00000000000;1985.00000000000;1958.00000000000;1957.00000000000;1971.00000000000;1945.00000000000;1950.00000000000;1938.00000000000;1959.00000000000;1927.00000000000;1941.00000000000;1941.00000000000;1927.00000000000;1918.00000000000;1949.00000000000;1939.00000000000;1930.00000000000;1978.00000000000;1964.00000000000;1991.00000000000;2015.00000000000;2089.00000000000;2162.00000000000;2293.00000000000;2415.00000000000;2517.00000000000;2614.00000000000;2815.00000000000;3011.00000000000;3147.00000000000;3341.00000000000;3587.00000000000;3782.00000000000;3867.00000000000;4008.00000000000;4069.00000000000;4071.00000000000;4069.00000000000;4006.00000000000;3883.00000000000;3775.00000000000;3695.00000000000;3571.00000000000;3391.00000000000;3312.00000000000;3228.00000000000;3221.00000000000;3224.00000000000;3333.00000000000;3351.00000000000;3397.00000000000;3467.00000000000;3514.00000000000;3605.00000000000;3697.00000000000;3715.00000000000;3724.00000000000;3673.00000000000;3611.00000000000;3647.00000000000;3584.00000000000;3436.00000000000;3356.00000000000;3311.00000000000;3221.00000000000;3126.00000000000;2954.00000000000;2807.00000000000;2701.00000000000;2595.00000000000;2444.00000000000;2318.00000000000;2244.00000000000;2195.00000000000;2107.00000000000;1964.00000000000;1870.00000000000;1886.00000000000;1806.00000000000;1716.00000000000;1728.00000000000;1723.00000000000;1682.00000000000;1669.00000000000;1686.00000000000;1756.00000000000;1686.00000000000;1682.00000000000;1711.00000000000;1730.00000000000;1710.00000000000;1717.00000000000;1739.00000000000;1741.00000000000;1731.00000000000;1738.00000000000;1770.00000000000;1765.00000000000;1738.00000000000;1768.00000000000;1759.00000000000;1745.00000000000;1767.00000000000;1774.00000000000;1777.00000000000;1800.00000000000;1779.00000000000;1789.00000000000;1789.00000000000;1818.00000000000;1792.00000000000;1815.00000000000;1786.00000000000;1804.00000000000;1796.00000000000;1770.00000000000;1784.00000000000;1790.00000000000;1801.00000000000;1787.00000000000;1783.00000000000;1774.00000000000;1805.00000000000;1771.00000000000;1802.00000000000;1785.00000000000;1804.00000000000;1802.00000000000
Gyro Z : 2648.00000000000;2643.00000000000;2648.00000000000;2650.00000000000;2675.00000000000;2629.00000000000;2656.00000000000;2648.00000000000;2647.00000000000;2642.00000000000;2666.00000000000;2656.00000000000;2683.00000000000;2685.00000000000;2692.00000000000;2670.00000000000;2665.00000000000;2702.00000000000;2674.00000000000;2665.00000000000;2674.00000000000;2667.00000000000;2657.00000000000;2668.00000000000;2671.00000000000;2646.00000000000;2646.00000000000;2655.00000000000;2669.00000000000;2628.00000000000;2648.00000000000;2623.00000000000;2593.00000000000;2572.00000000000;2542.00000000000;2483.00000000000;2405.00000000000;2351.00000000000;2254.00000000000;2171.00000000000;2097.00000000000;2020.00000000000;1929.00000000000;1849.00000000000;1788.00000000000;1798.00000000000;1756.00000000000;1745.00000000000;1789.00000000000;1819.00000000000;1847.00000000000;1762.00000000000;1896.00000000000;1942.00000000000;2008.00000000000;2136.00000000000;2314.00000000000;2522.00000000000;2531.00000000000;2616.00000000000;2541.00000000000;2752.00000000000;2865.00000000000;2918.00000000000;3003.00000000000;3008.00000000000;3082.00000000000;3029.00000000000;2888.00000000000;2743.00000000000;2618.00000000000;2548.00000000000;2485.00000000000;2412.00000000000;2373.00000000000;2355.00000000000;2369.00000000000;2344.00000000000;2279.00000000000;2262.00000000000;2336.00000000000;2382.00000000000;2292.00000000000;2293.00000000000;2297.00000000000;2353.00000000000;2324.00000000000;2221.00000000000;2159.00000000000;2187.00000000000;2225.00000000000;2140.00000000000;2069.00000000000;2053.00000000000;2085.00000000000;2016.00000000000;1984.00000000000;1968.00000000000;2017.00000000000;2038.00000000000;1938.00000000000;1985.00000000000;2085.00000000000;2175.00000000000;2218.00000000000;2237.00000000000;2347.00000000000;2398.00000000000;2441.00000000000;2504.00000000000;2550.00000000000;2561.00000000000;2607.00000000000;2632.00000000000;2656.00000000000;2649.00000000000;2639.00000000000;2640.00000000000;2655.00000000000;2652.00000000000;2619.00000000000;2648.00000000000;2593.00000000000;2631.00000000000;2639.00000000000;2621.00000000000;2616.00000000000;2609.00000000000;2607.00000000000;2619.00000000000;2644.00000000000;2652.00000000000;2648.00000000000;2658.00000000000;2671.00000000000;2641.00000000000;2635.00000000000;2648.00000000000;2634.00000000000;2653.00000000000;2631.00000000000;2613.00000000000;2609.00000000000;2640.00000000000;2634.00000000000;2634.00000000000;2596.00000000000;2602.00000000000;2600.00000000000;2619.00000000000
