COMMAND 3 SAMPLE 1
Accel X : 1815.00000000000;1815.00000000000;1804.00000000000;1825.00000000000;1818.00000000000;1799.00000000000;1807.00000000000;1806.00000000000;1809.00000000000;1819.00000000000;1819.00000000000;1820.00000000000;1803.00000000000;1806.00000000000;1801.00000000000;1799.00000000000;1804.00000000000;1788.00000000000;1785.00000000000;1832.00000000000;1826.00000000000;1834.00000000000;1798.00000000000;1803.00000000000;1783.00000000000;1754.00000000000;1791.00000000000;1837.00000000000;1855.00000000000;1787.00000000000;1798.00000000000;1910.00000000000;1983.00000000000;2154.00000000000;2409.00000000000;2654.00000000000;2705.00000000000;2866.00000000000;3123.00000000000;3359.00000000000;3329.00000000000;3225.00000000000;3161.00000000000;3209.00000000000;3227.00000000000;3307.00000000000;3297.00000000000;3244.00000000000;3281.00000000000;3240.00000000000;3078.00000000000;2972.00000000000;2874.00000000000;2787.00000000000;2699.00000000000;2540.00000000000;2407.00000000000;2346.00000000000;2181.00000000000;2035.00000000000;1915.00000000000;1869.00000000000;1838.00000000000;1785.00000000000;1655.00000000000;1562.00000000000;1460.00000000000;1441.00000000000;1278.00000000000;1175.00000000000;1151.00000000000;1079.00000000000;1172.00000000000;1184.00000000000;1220.00000000000;1302.00000000000;1287.00000000000;1205.00000000000;1395.00000000000;1505.00000000000;1648.00000000000;1456.00000000000;1082.00000000000;1681.00000000000;1942.00000000000;1771.00000000000;1694.00000000000;1716.00000000000;1751.00000000000;1699.00000000000;1632.00000000000;1783.00000000000;1843.00000000000;1889.00000000000;1849.00000000000;1666.00000000000;1479.00000000000;1496.00000000000;1637.00000000000;1727.00000000000;1560.00000000000;1572.00000000000;1730.00000000000;1734.00000000000;1724.00000000000;1789.00000000000;1686.00000000000;1671.00000000000;1616.00000000000;1753.00000000000;1766.00000000000;1797.00000000000;1819.00000000000;1797.00000000000;1827.00000000000;1921.00000000000;1896.00000000000;1870.00000000000;1834.00000000000;1846.00000000000;1852.00000000000;1875.00000000000;1876.00000000000;1877.00000000000;1840.00000000000;1839.00000000000;1898.00000000000;1873.00000000000;1870.00000000000;1841.00000000000;1800.00000000000;1804.00000000000;1829.00000000000;1855.00000000000;1868.00000000000;1837.00000000000;1828.00000000000;1832.00000000000;1856.00000000000;1829.00000000000;1870.00000000000;1854.00000000000;1825.00000000000;1812.00000000000;1800.00000000000;1831.00000000000;1830.00000000000;1832.00000000000;1818.00000000000;1784.00000000000
Accel Y : 2079.00000000000;2071.00000000000;2073.00000000000;2082.00000000000;2071.00000000000;2078.00000000000;2077.00000000000;2063.00000000000;2081.00000000000;2072.00000000000;2098.00000000000;2079.00000000000;2083.00000000000;2062.00000000000;2094.00000000000;2067.00000000000;2068.00000000000;2085.00000000000;2076.00000000000;2071.00000000000;2057.00000000000;2071.00000000000;2074.00000000000;2097.00000000000;2078.00000000000;2078.00000000000;2079.00000000000;2053.00000000000;2082.00000000000;2069.00000000000;2098.00000000000;2093.00000000000;2060.00000000000;2098.00000000000;2116.00000000000;1990.00000000000;1979.00000000000;1935.00000000000;1902.00000000000;1956.00000000000;1877.00000000000;1826.00000000000;1837.00000000000;1877.00000000000;1790.00000000000;1739.00000000000;1722.00000000000;1738.00000000000;1704.00000000000;1756.00000000000;1843.00000000000;1904.00000000000;1990.00000000000;2018.00000000000;2071.00000000000;2102.00000000000;2146.00000000000;2159.00000000000;2177.00000000000;2178.00000000000;2135.00000000000;2070.00000000000;2055.00000000000;1952.00000000000;1959.00000000000;1954.00000000000;1946.00000000000;1860.00000000000;1813.00000000000;1779.00000000000;1739.00000000000;1643.00000000000;1650.00000000000;1613.00000000000;1553.00000000000;1474.00000000000;1424.00000000000;1435.00000000000;1443.00000000000;1391.00000000000;1321.00000000000;1174.00000000000;1405.00000000000;1423.00000000000;1337.00000000000;1240.00000000000;1160.00000000000;1266.00000000000;1342.00000000000;1288.00000000000;1314.00000000000;1483.00000000000;1573.00000000000;1639.00000000000;1610.00000000000;1611.00000000000;1701.00000000000;1799.00000000000;1779.00000000000;1901.00000000000;1848.00000000000;1849.00000000000;1936.00000000000;1928.00000000000;2040.00000000000;2053.00000000000;2087.00000000000;2125.00000000000;2145.00000000000;2151.00000000000;2118.00000000000;2088.00000000000;2156.00000000000;2079.00000000000;2088.00000000000;2132.00000000000;2134.00000000000;2105.00000000000;2119.00000000000;2095.00000000000;2121.00000000000;2115.00000000000;2064.00000000000;2094.00000000000;2077.00000000000;2055.00000000000;2061.00000000000;2029.00000000000;2055.00000000000;2033.00000000000;2045.00000000000;1994.00000000000;2015.00000000000;1995.00000000000;2006.00000000000;2013.00000000000;2017.00000000000;2009.00000000000;2032.00000000000;2008.00000000000;1998.00000000000;2051.00000000000;1993.00000000000;2026.00000000000;1993.00000000000;2019.00000000000;2038.00000000000;1999.00000000000;2014.00000000000;2019.00000000000
Accel Z : 2661.00000000000;2664.00000000000;2663.00000000000;2672.00000000000;2653.00000000000;2645.00000000000;2649.00000000000;2657.00000000000;2659.00000000000;2672.00000000000;2667.00000000000;2653.00000000000;2650.00000000000;2655.00000000000;2671.00000000000;2661.00000000000;2627.00000000000;2657.00000000000;2644.00000000000;2651.00000000000;2652.00000000000;2649.00000000000;2667.00000000000;2667.00000000000;2636.00000000000;2635.00000000000;2629.00000000000;2618.00000000000;2603.00000000000;2562.00000000000;2469.00000000000;2257.00000000000;2157.00000000000;1957.00000000000;1702.00000000000;1611.00000000000;1443.00000000000;1169.00000000000;986.000000000000;936.000000000000;820.000000000000;646.000000000000;512.000000000000;386.000000000000;256.000000000000;129.000000000000;61.0000000000000;23.0000000000000;21.0000000000000;23.0000000000000;22.0000000000000;34.0000000000000;101.000000000000;244.000000000000;389.000000000000;523.000000000000;643.000000000000;925.000000000000;1096.00000000000;1179.00000000000;1385.00000000000;1617.00000000000;1798.00000000000;1985.00000000000;2091.00000000000;2203.00000000000;2348.00000000000;2483.00000000000;2473.00000000000;2532.00000000000;2608.00000000000;2578.00000000000;2582.00000000000;2539.00000000000;2485.00000000000;2523.00000000000;2513.00000000000;2368.00000000000;2354.00000000000;2325.00000000000;2230.00000000000;1997.00000000000;1847.00000000000;2036.00000000000;1878.00000000000;1642.00000000000;1496.00000000000;1556.00000000000;1555.00000000000;1496.00000000000;1531.00000000000;1725.00000000000;1980.00000000000;2031.00000000000;2058.00000000000;2027.00000000000;2041.00000000000;2172.00000000000;2368.00000000000;2463.00000000000;2479.00000000000;2476.00000000000;2612.00000000000;2759.00000000000;2723.00000000000;2923.00000000000;3019.00000000000;3029.00000000000;3058.00000000000;3081.00000000000;3134.00000000000;3230.00000000000;3131.00000000000;3077.00000000000;3067.00000000000;3067.00000000000;3032.00000000000;2997.00000000000;2953.00000000000;2911.00000000000;2884.00000000000;2831.00000000000;2801.00000000000;2775.00000000000;2731.00000000000;2723.00000000000;2681.00000000000;2657.00000000000;2649.00000000000;2618.00000000000;2637.00000000000;2620.00000000000;2627.00000000000;2632.00000000000;2632.00000000000;2630.00000000000;2655.00000000000;2667.00000000000;2660.00000000000;2636.00000000000;2655.00000000000;2654.00000000000;2658.00000000000;2668.00000000000;2667.00000000000;2667.00000000000;2668.00000000000;2661.00000000000;2666.00000000000;2672.00000000000
Gyro X : 1815.00000000000;1815.00000000000;1804.00000000000;1825.00000000000;1818.00000000000;1799.00000000000;1807.00000000000;1806.00000000000;1809.00000000000;1819.00000000000;1819.00000000000;1820.00000000000;1803.00000000000;1806.00000000000;1801.00000000000;1799.00000000000;1804.00000000000;1788.00000000000;1785.00000000000;1832.00000000000;1826.00000000000;1834.00000000000;1798.00000000000;1803.00000000000;1783.00000000000;1754.00000000000;1791.00000000000;1837.00000000000;1855.00000000000;1787.00000000000;1798.00000000000;1910.00000000000;1983.00000000000;2154.00000000000;2409.00000000000;2654.00000000000;2705.00000000000;2866.00000000000;3123.00000000000;3359.00000000000;3329.00000000000;3225.00000000000;3161.00000000000;3209.00000000000;3227.00000000000;3307.00000000000;3297.00000000000;3244.00000000000;3281.00000000000;3240.00000000000;3078.00000000000;2972.00000000000;2874.00000000000;2787.00000000000;2699.00000000000;2540.00000000000;2407.00000000000;2346.00000000000;2181.00000000000;2035.00000000000;1915.00000000000;1869.00000000000;1838.00000000000;1785.00000000000;1655.00000000000;1562.00000000000;1460.00000000000;1441.00000000000;1278.00000000000;1175.00000000000;1151.00000000000;1079.00000000000;1172.00000000000;1184.00000000000;1220.00000000000;1302.00000000000;1287.00000000000;1205.00000000000;1395.00000000000;1505.00000000000;1648.00000000000;1456.00000000000;1082.00000000000;1681.00000000000;1942.00000000000;1771.00000000000;1694.00000000000;1716.00000000000;1751.00000000000;1699.00000000000;1632.00000000000;1783.00000000000;1843.00000000000;1889.00000000000;1849.00000000000;1666.00000000000;1479.00000000000;1496.00000000000;1637.00000000000;1727.00000000000;1560.00000000000;1572.00000000000;1730.00000000000;1734.00000000000;1724.00000000000;1789.00000000000;1686.00000000000;1671.00000000000;1616.00000000000;1753.00000000000;1766.00000000000;1797.00000000000;1819.00000000000;1797.00000000000;1827.00000000000;1921.00000000000;1896.00000000000;1870.00000000000;1834.00000000000;1846.00000000000;1852.00000000000;1875.00000000000;1876.00000000000;1877.00000000000;1840.00000000000;1839.00000000000;1898.00000000000;1873.00000000000;1870.00000000000;1841.00000000000;1800.00000000000;1804.00000000000;1829.00000000000;1855.00000000000;1868.00000000000;1837.00000000000;1828.00000000000;1832.00000000000;1856.00000000000;1829.00000000000;1870.00000000000;1854.00000000000;1825.00000000000;1812.00000000000;1800.00000000000;1831.00000000000;1830.00000000000;1832.00000000000;1818.00000000000;1784.00000000000
Gyro Y : 2079.00000000000;2071.00000000000;2073.00000000000;2082.00000000000;2071.00000000000;2078.00000000000;2077.00000000000;2063.00000000000;2081.00000000000;2072.00000000000;2098.00000000000;2079.00000000000;2083.00000000000;2062.00000000000;2094.00000000000;2067.00000000000;2068.00000000000;2085.00000000000;2076.00000000000;2071.00000000000;2057.00000000000;2071.00000000000;2074.00000000000;2097.00000000000;2078.00000000000;2078.00000000000;2079.00000000000;2053.00000000000;2082.00000000000;2069.00000000000;2098.00000000000;2093.00000000000;2060.00000000000;2098.00000000000;2116.00000000000;1990.00000000000;1979.00000000000;1935.00000000000;1902.00000000000;1956.00000000000;1877.00000000000;1826.00000000000;1837.00000000000;1877.00000000000;1790.00000000000;1739.00000000000;1722.00000000000;1738.00000000000;1704.00000000000;1756.00000000000;1843.00000000000;1904.00000000000;1990.00000000000;2018.00000000000;2071.00000000000;2102.00000000000;2146.00000000000;2159.00000000000;2177.00000000000;2178.00000000000;2135.00000000000;2070.00000000000;2055.00000000000;1952.00000000000;1959.00000000000;1954.00000000000;1946.00000000000;1860.00000000000;1813.00000000000;1779.00000000000;1739.00000000000;1643.00000000000;1650.00000000000;1613.00000000000;1553.00000000000;1474.00000000000;1424.00000000000;1435.00000000000;1443.00000000000;1391.00000000000;1321.00000000000;1174.00000000000;1405.00000000000;1423.00000000000;1337.00000000000;1240.00000000000;1160.00000000000;1266.00000000000;1342.00000000000;1288.00000000000;1314.00000000000;1483.00000000000;1573.00000000000;1639.00000000000;1610.00000000000;1611.00000000000;1701.00000000000;1799.00000000000;1779.00000000000;1901.00000000000;1848.00000000000;1849.00000000000;1936.00000000000;1928.00000000000;2040.00000000000;2053.00000000000;2087.00000000000;2125.00000000000;2145.00000000000;2151.00000000000;2118.00000000000;2088.00000000000;2156.00000000000;2079.00000000000;2088.00000000000;2132.00000000000;2134.00000000000;2105.00000000000;2119.00000000000;2095.00000000000;2121.00000000000;2115.00000000000;2064.00000000000;2094.00000000000;2077.00000000000;2055.00000000000;2061.00000000000;2029.00000000000;2055.00000000000;2033.00000000000;2045.00000000000;1994.00000000000;2015.00000000000;1995.00000000000;2006.00000000000;2013.00000000000;2017.00000000000;2009.00000000000;2032.00000000000;2008.00000000000;1998.00000000000;2051.00000000000;1993.00000000000;2026.00000000000;1993.00000000000;2019.00000000000;2038.00000000000;1999.00000000000;2014.00000000000;2019.00000000000
Gyro Z : 2661.00000000000;2664.00000000000;2663.00000000000;2672.00000000000;2653.00000000000;2645.00000000000;2649.00000000000;2657.00000000000;2659.00000000000;2672.00000000000;2667.00000000000;2653.00000000000;2650.00000000000;2655.00000000000;2671.00000000000;2661.00000000000;2627.00000000000;2657.00000000000;2644.00000000000;2651.00000000000;2652.00000000000;2649.00000000000;2667.00000000000;2667.00000000000;2636.00000000000;2635.00000000000;2629.00000000000;2618.00000000000;2603.00000000000;2562.00000000000;2469.00000000000;2257.00000000000;2157.00000000000;1957.00000000000;1702.00000000000;1611.00000000000;1443.00000000000;1169.00000000000;986.000000000000;936.000000000000;820.000000000000;646.000000000000;512.000000000000;386.000000000000;256.000000000000;129.000000000000;61.0000000000000;23.0000000000000;21.0000000000000;23.0000000000000;22.0000000000000;34.0000000000000;101.000000000000;244.000000000000;389.000000000000;523.000000000000;643.000000000000;925.000000000000;1096.00000000000;1179.00000000000;1385.00000000000;1617.00000000000;1798.00000000000;1985.00000000000;2091.00000000000;2203.00000000000;2348.00000000000;2483.00000000000;2473.00000000000;2532.00000000000;2608.00000000000;2578.00000000000;2582.00000000000;2539.00000000000;2485.00000000000;2523.00000000000;2513.00000000000;2368.00000000000;2354.00000000000;2325.00000000000;2230.00000000000;1997.00000000000;1847.00000000000;2036.00000000000;1878.00000000000;1642.00000000000;1496.00000000000;1556.00000000000;1555.00000000000;1496.00000000000;1531.00000000000;1725.00000000000;1980.00000000000;2031.00000000000;2058.00000000000;2027.00000000000;2041.00000000000;2172.00000000000;2368.00000000000;2463.00000000000;2479.00000000000;2476.00000000000;2612.00000000000;2759.00000000000;2723.00000000000;2923.00000000000;3019.00000000000;3029.00000000000;3058.00000000000;3081.00000000000;3134.00000000000;3230.00000000000;3131.00000000000;3077.00000000000;3067.00000000000;3067.00000000000;3032.00000000000;2997.00000000000;2953.00000000000;2911.00000000000;2884.00000000000;2831.00000000000;2801.00000000000;2775.00000000000;2731.00000000000;2723.00000000000;2681.00000000000;2657.00000000000;2649.00000000000;2618.00000000000;2637.00000000000;2620.00000000000;2627.00000000000;2632.00000000000;2632.00000000000;2630.00000000000;2655.00000000000;2667.00000000000;2660.00000000000;2636.00000000000;2655.00000000000;2654.00000000000;2658.00000000000;2668.00000000000;2667.00000000000;2667.00000000000;2668.00000000000;2661.00000000000;2666.00000000000;2672.00000000000
