COMMAND 4 SAMPLE 1
Accel X : 1920.00000000000;1923.00000000000;1901.00000000000;1909.00000000000;1918.00000000000;1924.00000000000;1910.00000000000;1904.00000000000;1882.00000000000;1935.00000000000;1888.00000000000;1913.00000000000;1863.00000000000;1865.00000000000;1896.00000000000;1887.00000000000;1855.00000000000;1831.00000000000;1881.00000000000;1871.00000000000;1874.00000000000;1847.00000000000;1833.00000000000;1803.00000000000;1835.00000000000;1865.00000000000;1868.00000000000;1882.00000000000;1811.00000000000;1799.00000000000;1843.00000000000;1877.00000000000;1836.00000000000;1840.00000000000;1836.00000000000;1837.00000000000;1844.00000000000;1877.00000000000;1888.00000000000;1864.00000000000;1782.00000000000;1824.00000000000;1824.00000000000;1796.00000000000;1850.00000000000;1846.00000000000;1856.00000000000;1863.00000000000;1790.00000000000;1762.00000000000;1870.00000000000;1913.00000000000;1803.00000000000;1633.00000000000;1677.00000000000;1922.00000000000;1908.00000000000;1674.00000000000;1457.00000000000;1661.00000000000;1836.00000000000;1914.00000000000;1779.00000000000;1489.00000000000;1523.00000000000;1795.00000000000;1816.00000000000;1799.00000000000;1673.00000000000;1722.00000000000;1760.00000000000;1742.00000000000;1780.00000000000;1827.00000000000;1831.00000000000;1833.00000000000;1789.00000000000;1778.00000000000;1849.00000000000;1802.00000000000;1722.00000000000;1692.00000000000;1806.00000000000;1862.00000000000;1823.00000000000;1793.00000000000;1841.00000000000;1917.00000000000;1866.00000000000;1840.00000000000;1907.00000000000;1844.00000000000;1815.00000000000;1747.00000000000;1850.00000000000;1902.00000000000;1873.00000000000;1869.00000000000;1880.00000000000;1829.00000000000;1843.00000000000;1914.00000000000;1944.00000000000;1840.00000000000;1759.00000000000;1856.00000000000;1860.00000000000;1871.00000000000;1836.00000000000;1866.00000000000;1874.00000000000;1894.00000000000;1881.00000000000;1839.00000000000;1822.00000000000;1892.00000000000;1890.00000000000;1892.00000000000;1912.00000000000;1890.00000000000;1848.00000000000;1849.00000000000;1924.00000000000;1911.00000000000;1848.00000000000;1859.00000000000;1906.00000000000;1847.00000000000;1903.00000000000;1884.00000000000;1873.00000000000;1895.00000000000;1838.00000000000;1868.00000000000;1908.00000000000;1897.00000000000;1866.00000000000;1866.00000000000;1874.00000000000;1861.00000000000;1866.00000000000;1867.00000000000;1857.00000000000;1835.00000000000;1856.00000000000;1882.00000000000;1865.00000000000;1846.00000000000;1833.00000000000;1855.00000000000
Accel Y : 1952.00000000000;1970.00000000000;1938.00000000000;1932.00000000000;1924.00000000000;1943.00000000000;1948.00000000000;1962.00000000000;1925.00000000000;1931.00000000000;1893.00000000000;1919.00000000000;1920.00000000000;1902.00000000000;1916.00000000000;1924.00000000000;1895.00000000000;1899.00000000000;1882.00000000000;1899.00000000000;1906.00000000000;1895.00000000000;1938.00000000000;1887.00000000000;1916.00000000000;1919.00000000000;1921.00000000000;1938.00000000000;1944.00000000000;1909.00000000000;1924.00000000000;1931.00000000000;1927.00000000000;1947.00000000000;1935.00000000000;1932.00000000000;1936.00000000000;1925.00000000000;1955.00000000000;1964.00000000000;1911.00000000000;1905.00000000000;2049.00000000000;2083.00000000000;2116.00000000000;2139.00000000000;2114.00000000000;2260.00000000000;2433.00000000000;2535.00000000000;2615.00000000000;2618.00000000000;2784.00000000000;3020.00000000000;3132.00000000000;3081.00000000000;3131.00000000000;3324.00000000000;3421.00000000000;3447.00000000000;3313.00000000000;3395.00000000000;3486.00000000000;3363.00000000000;3308.00000000000;3345.00000000000;3269.00000000000;3209.00000000000;3149.00000000000;3067.00000000000;3115.00000000000;3108.00000000000;3060.00000000000;3079.00000000000;3059.00000000000;3082.00000000000;3126.00000000000;3050.00000000000;3056.00000000000;3147.00000000000;3153.00000000000;3135.00000000000;3151.00000000000;3197.00000000000;3225.00000000000;3271.00000000000;3271.00000000000;3255.00000000000;3316.00000000000;3272.00000000000;3237.00000000000;3260.00000000000;3206.00000000000;3164.00000000000;3043.00000000000;2953.00000000000;2909.00000000000;2770.00000000000;2675.00000000000;2572.00000000000;2434.00000000000;2336.00000000000;2232.00000000000;2189.00000000000;2026.00000000000;1949.00000000000;1973.00000000000;1914.00000000000;1793.00000000000;1825.00000000000;1829.00000000000;1761.00000000000;1791.00000000000;1817.00000000000;1776.00000000000;1847.00000000000;1851.00000000000;1803.00000000000;1839.00000000000;1857.00000000000;1860.00000000000;1869.00000000000;1862.00000000000;1865.00000000000;1878.00000000000;1850.00000000000;1895.00000000000;1891.00000000000;1892.00000000000;1906.00000000000;1881.00000000000;1909.00000000000;1938.00000000000;1912.00000000000;1918.00000000000;1898.00000000000;1928.00000000000;1880.00000000000;1876.00000000000;1917.00000000000;1910.00000000000;1894.00000000000;1901.00000000000;1909.00000000000;1880.00000000000;1912.00000000000;1909.00000000000;1892.00000000000;1916.00000000000;1919.00000000000
Accel Z : 2679.00000000000;2699.00000000000;2648.00000000000;2670.00000000000;2650.00000000000;2641.00000000000;2635.00000000000;2609.00000000000;2602.00000000000;2607.00000000000;2614.00000000000;2605.00000000000;2604.00000000000;2620.00000000000;2609.00000000000;2621.00000000000;2613.00000000000;2591.00000000000;2611.00000000000;2625.00000000000;2620.00000000000;2644.00000000000;2633.00000000000;2645.00000000000;2628.00000000000;2640.00000000000;2623.00000000000;2632.00000000000;2604.00000000000;2603.00000000000;2630.00000000000;2618.00000000000;2599.00000000000;2563.00000000000;2559.00000000000;2520.00000000000;2488.00000000000;2425.00000000000;2388.00000000000;2242.00000000000;2192.00000000000;2171.00000000000;2098.00000000000;2040.00000000000;2054.00000000000;2112.00000000000;2100.00000000000;2147.00000000000;2089.00000000000;2009.00000000000;2170.00000000000;2299.00000000000;2295.00000000000;2162.00000000000;2136.00000000000;2452.00000000000;2512.00000000000;2460.00000000000;2312.00000000000;2493.00000000000;2733.00000000000;2804.00000000000;2622.00000000000;2602.00000000000;2636.00000000000;2673.00000000000;2675.00000000000;2608.00000000000;2596.00000000000;2657.00000000000;2641.00000000000;2592.00000000000;2553.00000000000;2505.00000000000;2530.00000000000;2462.00000000000;2380.00000000000;2428.00000000000;2406.00000000000;2449.00000000000;2460.00000000000;2448.00000000000;2497.00000000000;2594.00000000000;2616.00000000000;2569.00000000000;2608.00000000000;2679.00000000000;2697.00000000000;2633.00000000000;2669.00000000000;2645.00000000000;2618.00000000000;2483.00000000000;2489.00000000000;2479.00000000000;2384.00000000000;2311.00000000000;2266.00000000000;2154.00000000000;2124.00000000000;2079.00000000000;2109.00000000000;2006.00000000000;1956.00000000000;1971.00000000000;1944.00000000000;1975.00000000000;2017.00000000000;2023.00000000000;2098.00000000000;2174.00000000000;2304.00000000000;2355.00000000000;2428.00000000000;2521.00000000000;2557.00000000000;2608.00000000000;2701.00000000000;2691.00000000000;2717.00000000000;2683.00000000000;2677.00000000000;2709.00000000000;2650.00000000000;2671.00000000000;2676.00000000000;2669.00000000000;2682.00000000000;2650.00000000000;2660.00000000000;2687.00000000000;2651.00000000000;2625.00000000000;2653.00000000000;2660.00000000000;2646.00000000000;2645.00000000000;2629.00000000000;2643.00000000000;2637.00000000000;2628.00000000000;2666.00000000000;2679.00000000000;2658.00000000000;2661.00000000000;2643.00000000000;2651.00000000000;2664.00000000000;2655.00000000000
Gyro X : 1920.00000000000;1923.00000000000;1901.00000000000;1909.00000000000;1918.00000000000;1924.00000000000;1910.00000000000;1904.00000000000;1882.00000000000;1935.00000000000;1888.00000000000;1913.00000000000;1863.00000000000;1865.00000000000;1896.00000000000;1887.00000000000;1855.00000000000;1831.00000000000;1881.00000000000;1871.00000000000;1874.00000000000;1847.00000000000;1833.00000000000;1803.00000000000;1835.00000000000;1865.00000000000;1868.00000000000;1882.00000000000;1811.00000000000;1799.00000000000;1843.00000000000;1877.00000000000;1836.00000000000;1840.00000000000;1836.00000000000;1837.00000000000;1844.00000000000;1877.00000000000;1888.00000000000;1864.00000000000;1782.00000000000;1824.00000000000;1824.00000000000;1796.00000000000;1850.00000000000;1846.00000000000;1856.00000000000;1863.00000000000;1790.00000000000;1762.00000000000;1870.00000000000;1913.00000000000;1803.00000000000;1633.00000000000;1677.00000000000;1922.00000000000;1908.00000000000;1674.00000000000;1457.00000000000;1661.00000000000;1836.00000000000;1914.00000000000;1779.00000000000;1489.00000000000;1523.00000000000;1795.00000000000;1816.00000000000;1799.00000000000;1673.00000000000;1722.00000000000;1760.00000000000;1742.00000000000;1780.00000000000;1827.00000000000;1831.00000000000;1833.00000000000;1789.00000000000;1778.00000000000;1849.00000000000;1802.00000000000;1722.00000000000;1692.00000000000;1806.00000000000;1862.00000000000;1823.00000000000;1793.00000000000;1841.00000000000;1917.00000000000;1866.00000000000;1840.00000000000;1907.00000000000;1844.00000000000;1815.00000000000;1747.00000000000;1850.00000000000;1902.00000000000;1873.00000000000;1869.00000000000;1880.00000000000;1829.00000000000;1843.00000000000;1914.00000000000;1944.00000000000;1840.00000000000;1759.00000000000;1856.00000000000;1860.00000000000;1871.00000000000;1836.00000000000;1866.00000000000;1874.00000000000;1894.00000000000;1881.00000000000;1839.00000000000;1822.00000000000;1892.00000000000;1890.00000000000;1892.00000000000;1912.00000000000;1890.00000000000;1848.00000000000;1849.00000000000;1924.00000000000;1911.00000000000;1848.00000000000;1859.00000000000;1906.00000000000;1847.00000000000;1903.00000000000;1884.00000000000;1873.00000000000;1895.00000000000;1838.00000000000;1868.00000000000;1908.00000000000;1897.00000000000;1866.00000000000;1866.00000000000;1874.00000000000;1861.00000000000;1866.00000000000;1867.00000000000;1857.00000000000;1835.00000000000;1856.00000000000;1882.00000000000;1865.00000000000;1846.00000000000;1833.00000000000;1855.00000000000
Gyro Y : 1952.00000000000;1970.00000000000;1938.00000000000;1932.00000000000;1924.00000000000;1943.00000000000;1948.00000000000;1962.00000000000;1925.00000000000;1931.00000000000;1893.00000000000;1919.00000000000;1920.00000000000;1902.00000000000;1916.00000000000;1924.00000000000;1895.00000000000;1899.00000000000;1882.00000000000;1899.00000000000;1906.00000000000;1895.00000000000;1938.00000000000;1887.00000000000;1916.00000000000;1919.00000000000;1921.00000000000;1938.00000000000;1944.00000000000;1909.00000000000;1924.00000000000;1931.00000000000;1927.00000000000;1947.00000000000;1935.00000000000;1932.00000000000;1936.00000000000;1925.00000000000;1955.00000000000;1964.00000000000;1911.00000000000;1905.00000000000;2049.00000000000;2083.00000000000;2116.00000000000;2139.00000000000;2114.00000000000;2260.00000000000;2433.00000000000;2535.00000000000;2615.00000000000;2618.00000000000;2784.00000000000;3020.00000000000;3132.00000000000;3081.00000000000;3131.00000000000;3324.00000000000;3421.00000000000;3447.00000000000;3313.00000000000;3395.00000000000;3486.00000000000;3363.00000000000;3308.00000000000;3345.00000000000;3269.00000000000;3209.00000000000;3149.00000000000;3067.00000000000;3115.00000000000;3108.00000000000;3060.00000000000;3079.00000000000;3059.00000000000;3082.00000000000;3126.00000000000;3050.00000000000;3056.00000000000;3147.00000000000;3153.00000000000;3135.00000000000;3151.00000000000;3197.00000000000;3225.00000000000;3271.00000000000;3271.00000000000;3255.00000000000;3316.00000000000;3272.00000000000;3237.00000000000;3260.00000000000;3206.00000000000;3164.00000000000;3043.00000000000;2953.00000000000;2909.00000000000;2770.00000000000;2675.00000000000;2572.00000000000;2434.00000000000;2336.00000000000;2232.00000000000;2189.00000000000;2026.00000000000;1949.00000000000;1973.00000000000;1914.00000000000;1793.00000000000;1825.00000000000;1829.00000000000;1761.00000000000;1791.00000000000;1817.00000000000;1776.00000000000;1847.00000000000;1851.00000000000;1803.00000000000;1839.00000000000;1857.00000000000;1860.00000000000;1869.00000000000;1862.00000000000;1865.00000000000;1878.00000000000;1850.00000000000;1895.00000000000;1891.00000000000;1892.00000000000;1906.00000000000;1881.00000000000;1909.00000000000;1938.00000000000;1912.00000000000;1918.00000000000;1898.00000000000;1928.00000000000;1880.00000000000;1876.00000000000;1917.00000000000;1910.00000000000;1894.00000000000;1901.00000000000;1909.00000000000;1880.00000000000;1912.00000000000;1909.00000000000;1892.00000000000;1916.00000000000;1919.00000000000
Gyro Z : 2679.00000000000;2699.00000000000;2648.00000000000;2670.00000000000;2650.00000000000;2641.00000000000;2635.00000000000;2609.00000000000;2602.00000000000;2607.00000000000;2614.00000000000;2605.00000000000;2604.00000000000;2620.00000000000;2609.00000000000;2621.00000000000;2613.00000000000;2591.00000000000;2611.00000000000;2625.00000000000;2620.00000000000;2644.00000000000;2633.00000000000;2645.00000000000;2628.00000000000;2640.00000000000;2623.00000000000;2632.00000000000;2604.00000000000;2603.00000000000;2630.00000000000;2618.00000000000;2599.00000000000;2563.00000000000;2559.00000000000;2520.00000000000;2488.00000000000;2425.00000000000;2388.00000000000;2242.00000000000;2192.00000000000;2171.00000000000;2098.00000000000;2040.00000000000;2054.00000000000;2112.00000000000;2100.00000000000;2147.00000000000;2089.00000000000;2009.00000000000;2170.00000000000;2299.00000000000;2295.00000000000;2162.00000000000;2136.00000000000;2452.00000000000;2512.00000000000;2460.00000000000;2312.00000000000;2493.00000000000;2733.00000000000;2804.00000000000;2622.00000000000;2602.00000000000;2636.00000000000;2673.00000000000;2675.00000000000;2608.00000000000;2596.00000000000;2657.00000000000;2641.00000000000;2592.00000000000;2553.00000000000;2505.00000000000;2530.00000000000;2462.00000000000;2380.00000000000;2428.00000000000;2406.00000000000;2449.00000000000;2460.00000000000;2448.00000000000;2497.00000000000;2594.00000000000;2616.00000000000;2569.00000000000;2608.00000000000;2679.00000000000;2697.00000000000;2633.00000000000;2669.00000000000;2645.00000000000;2618.00000000000;2483.00000000000;2489.00000000000;2479.00000000000;2384.00000000000;2311.00000000000;2266.00000000000;2154.00000000000;2124.00000000000;2079.00000000000;2109.00000000000;2006.00000000000;1956.00000000000;1971.00000000000;1944.00000000000;1975.00000000000;2017.00000000000;2023.00000000000;2098.00000000000;2174.00000000000;2304.00000000000;2355.00000000000;2428.00000000000;2521.00000000000;2557.00000000000;2608.00000000000;2701.00000000000;2691.00000000000;2717.00000000000;2683.00000000000;2677.00000000000;2709.00000000000;2650.00000000000;2671.00000000000;2676.00000000000;2669.00000000000;2682.00000000000;2650.00000000000;2660.00000000000;2687.00000000000;2651.00000000000;2625.00000000000;2653.00000000000;2660.00000000000;2646.00000000000;2645.00000000000;2629.00000000000;2643.00000000000;2637.00000000000;2628.00000000000;2666.00000000000;2679.00000000000;2658.00000000000;2661.00000000000;2643.00000000000;2651.00000000000;2664.00000000000;2655.00000000000
