COMMAND 3 SAMPLE 1
Accel X : 1789.00000000000;1771.00000000000;1784.00000000000;1815.00000000000;1798.00000000000;1770.00000000000;1772.00000000000;1789.00000000000;1786.00000000000;1775.00000000000;1768.00000000000;1764.00000000000;1763.00000000000;1777.00000000000;1759.00000000000;1779.00000000000;1760.00000000000;1774.00000000000;1777.00000000000;1782.00000000000;1790.00000000000;1792.00000000000;1767.00000000000;1765.00000000000;1792.00000000000;1789.00000000000;1779.00000000000;1807.00000000000;1800.00000000000;1855.00000000000;1840.00000000000;1824.00000000000;1786.00000000000;1754.00000000000;1813.00000000000;1926.00000000000;1969.00000000000;1944.00000000000;1918.00000000000;2132.00000000000;2408.00000000000;2583.00000000000;2774.00000000000;2875.00000000000;2922.00000000000;2991.00000000000;3370.00000000000;3487.00000000000;3270.00000000000;3204.00000000000;3287.00000000000;3203.00000000000;3092.00000000000;2971.00000000000;3033.00000000000;3013.00000000000;2952.00000000000;2834.00000000000;2732.00000000000;2680.00000000000;2651.00000000000;2595.00000000000;2423.00000000000;2229.00000000000;2193.00000000000;2046.00000000000;1953.00000000000;1760.00000000000;1696.00000000000;1672.00000000000;1631.00000000000;1521.00000000000;1365.00000000000;1351.00000000000;1362.00000000000;1331.00000000000;1338.00000000000;1361.00000000000;1413.00000000000;1472.00000000000;1533.00000000000;1571.00000000000;1619.00000000000;1751.00000000000;1814.00000000000;1749.00000000000;1756.00000000000;1867.00000000000;1913.00000000000;1947.00000000000;1864.00000000000;1923.00000000000;1820.00000000000;1912.00000000000;2153.00000000000;2294.00000000000;2259.00000000000;2127.00000000000;2133.00000000000;2306.00000000000;2585.00000000000;2510.00000000000;2103.00000000000;2016.00000000000;2099.00000000000;2005.00000000000;1794.00000000000;1533.00000000000;1559.00000000000;1664.00000000000;1683.00000000000;1438.00000000000;1577.00000000000;1553.00000000000;1586.00000000000;1439.00000000000;1443.00000000000;1622.00000000000;1675.00000000000;1742.00000000000;1746.00000000000;1816.00000000000;1860.00000000000;1871.00000000000;1921.00000000000;1899.00000000000;1795.00000000000;1773.00000000000;1804.00000000000;1847.00000000000;1856.00000000000;1787.00000000000;1819.00000000000;1837.00000000000;1861.00000000000;1817.00000000000;1814.00000000000;1787.00000000000;1850.00000000000;1807.00000000000;1806.00000000000;1813.00000000000;1822.00000000000;1845.00000000000;1831.00000000000;1832.00000000000;1852.00000000000;1843.00000000000;1836.00000000000;1835.00000000000
Accel Y : 2086.00000000000;2101.00000000000;2109.00000000000;2099.00000000000;2093.00000000000;2088.00000000000;2075.00000000000;2097.00000000000;2089.00000000000;2110.00000000000;2091.00000000000;2087.00000000000;2097.00000000000;2100.00000000000;2080.00000000000;2081.00000000000;2094.00000000000;2086.00000000000;2080.00000000000;2090.00000000000;2108.00000000000;2116.00000000000;2083.00000000000;2101.00000000000;2091.00000000000;2079.00000000000;2083.00000000000;2095.00000000000;2100.00000000000;2091.00000000000;2105.00000000000;2091.00000000000;2078.00000000000;2108.00000000000;2077.00000000000;2084.00000000000;2085.00000000000;2059.00000000000;2085.00000000000;2113.00000000000;2052.00000000000;1958.00000000000;1982.00000000000;1933.00000000000;1814.00000000000;1773.00000000000;1665.00000000000;1772.00000000000;1747.00000000000;1574.00000000000;1672.00000000000;1643.00000000000;1745.00000000000;1723.00000000000;1735.00000000000;1782.00000000000;1827.00000000000;1885.00000000000;1886.00000000000;1957.00000000000;1959.00000000000;1936.00000000000;2031.00000000000;2041.00000000000;2011.00000000000;1991.00000000000;1941.00000000000;1950.00000000000;1871.00000000000;1821.00000000000;1833.00000000000;1742.00000000000;1702.00000000000;1674.00000000000;1639.00000000000;1556.00000000000;1552.00000000000;1490.00000000000;1430.00000000000;1342.00000000000;1328.00000000000;1295.00000000000;1310.00000000000;1227.00000000000;1116.00000000000;1175.00000000000;1235.00000000000;1189.00000000000;1189.00000000000;1216.00000000000;1206.00000000000;1255.00000000000;1253.00000000000;1315.00000000000;1295.00000000000;1268.00000000000;1256.00000000000;1229.00000000000;1272.00000000000;1274.00000000000;1365.00000000000;1373.00000000000;1376.00000000000;1529.00000000000;1742.00000000000;1807.00000000000;1726.00000000000;1930.00000000000;1895.00000000000;2013.00000000000;1930.00000000000;2004.00000000000;2141.00000000000;2057.00000000000;2138.00000000000;2157.00000000000;2105.00000000000;2171.00000000000;2194.00000000000;2176.00000000000;2173.00000000000;2146.00000000000;2175.00000000000;2171.00000000000;2138.00000000000;2148.00000000000;2137.00000000000;2103.00000000000;2129.00000000000;2147.00000000000;2144.00000000000;2102.00000000000;2147.00000000000;2123.00000000000;2125.00000000000;2106.00000000000;2113.00000000000;2115.00000000000;2096.00000000000;2091.00000000000;2087.00000000000;2107.00000000000;2103.00000000000;2086.00000000000;2095.00000000000;2115.00000000000;2105.00000000000;2091.00000000000;2101.00000000000;2069.00000000000
Accel Z : 2645.00000000000;2683.00000000000;2668.00000000000;2674.00000000000;2667.00000000000;2665.00000000000;2711.00000000000;2678.00000000000;2666.00000000000;2654.00000000000;2639.00000000000;2646.00000000000;2636.00000000000;2657.00000000000;2639.00000000000;2665.00000000000;2650.00000000000;2655.00000000000;2645.00000000000;2642.00000000000;2650.00000000000;2650.00000000000;2650.00000000000;2649.00000000000;2675.00000000000;2651.00000000000;2647.00000000000;2653.00000000000;2673.00000000000;2651.00000000000;2634.00000000000;2655.00000000000;2659.00000000000;2647.00000000000;2591.00000000000;2540.00000000000;2535.00000000000;2473.00000000000;2355.00000000000;2095.00000000000;1915.00000000000;1819.00000000000;1697.00000000000;1456.00000000000;1219.00000000000;929.000000000000;798.000000000000;629.000000000000;457.000000000000;226.000000000000;188.000000000000;99.0000000000000;34.0000000000000;27.0000000000000;39.0000000000000;84.0000000000000;175.000000000000;210.000000000000;247.000000000000;415.000000000000;531.000000000000;623.000000000000;738.000000000000;846.000000000000;1060.00000000000;1261.00000000000;1399.00000000000;1525.00000000000;1653.00000000000;1789.00000000000;1915.00000000000;2045.00000000000;2115.00000000000;2200.00000000000;2274.00000000000;2363.00000000000;2419.00000000000;2436.00000000000;2495.00000000000;2432.00000000000;2429.00000000000;2356.00000000000;2235.00000000000;2236.00000000000;2151.00000000000;2092.00000000000;2025.00000000000;1932.00000000000;1925.00000000000;1843.00000000000;1786.00000000000;1742.00000000000;1631.00000000000;1529.00000000000;1522.00000000000;1497.00000000000;1446.00000000000;1305.00000000000;1253.00000000000;1263.00000000000;1533.00000000000;1537.00000000000;1602.00000000000;1736.00000000000;2050.00000000000;2191.00000000000;2304.00000000000;2368.00000000000;2610.00000000000;2555.00000000000;2608.00000000000;2692.00000000000;2886.00000000000;3073.00000000000;3099.00000000000;2998.00000000000;3032.00000000000;3142.00000000000;3205.00000000000;3143.00000000000;3058.00000000000;2996.00000000000;2929.00000000000;2883.00000000000;2873.00000000000;2846.00000000000;2811.00000000000;2805.00000000000;2785.00000000000;2772.00000000000;2751.00000000000;2730.00000000000;2699.00000000000;2695.00000000000;2711.00000000000;2639.00000000000;2657.00000000000;2620.00000000000;2643.00000000000;2676.00000000000;2673.00000000000;2679.00000000000;2667.00000000000;2671.00000000000;2673.00000000000;2675.00000000000;2678.00000000000;2687.00000000000;2680.00000000000;2700.00000000000
Gyro X : 1789.00000000000;1771.00000000000;1784.00000000000;1815.00000000000;1798.00000000000;1770.00000000000;1772.00000000000;1789.00000000000;1786.00000000000;1775.00000000000;1768.00000000000;1764.00000000000;1763.00000000000;1777.00000000000;1759.00000000000;1779.00000000000;1760.00000000000;1774.00000000000;1777.00000000000;1782.00000000000;1790.00000000000;1792.00000000000;1767.00000000000;1765.00000000000;1792.00000000000;1789.00000000000;1779.00000000000;1807.00000000000;1800.00000000000;1855.00000000000;1840.00000000000;1824.00000000000;1786.00000000000;1754.00000000000;1813.00000000000;1926.00000000000;1969.00000000000;1944.00000000000;1918.00000000000;2132.00000000000;2408.00000000000;2583.00000000000;2774.00000000000;2875.00000000000;2922.00000000000;2991.00000000000;3370.00000000000;3487.00000000000;3270.00000000000;3204.00000000000;3287.00000000000;3203.00000000000;3092.00000000000;2971.00000000000;3033.00000000000;3013.00000000000;2952.00000000000;2834.00000000000;2732.00000000000;2680.00000000000;2651.00000000000;2595.00000000000;2423.00000000000;2229.00000000000;2193.00000000000;2046.00000000000;1953.00000000000;1760.00000000000;1696.00000000000;1672.00000000000;1631.00000000000;1521.00000000000;1365.00000000000;1351.00000000000;1362.00000000000;1331.00000000000;1338.00000000000;1361.00000000000;1413.00000000000;1472.00000000000;1533.00000000000;1571.00000000000;1619.00000000000;1751.00000000000;1814.00000000000;1749.00000000000;1756.00000000000;1867.00000000000;1913.00000000000;1947.00000000000;1864.00000000000;1923.00000000000;1820.00000000000;1912.00000000000;2153.00000000000;2294.00000000000;2259.00000000000;2127.00000000000;2133.00000000000;2306.00000000000;2585.00000000000;2510.00000000000;2103.00000000000;2016.00000000000;2099.00000000000;2005.00000000000;1794.00000000000;1533.00000000000;1559.00000000000;1664.00000000000;1683.00000000000;1438.00000000000;1577.00000000000;1553.00000000000;1586.00000000000;1439.00000000000;1443.00000000000;1622.00000000000;1675.00000000000;1742.00000000000;1746.00000000000;1816.00000000000;1860.00000000000;1871.00000000000;1921.00000000000;1899.00000000000;1795.00000000000;1773.00000000000;1804.00000000000;1847.00000000000;1856.00000000000;1787.00000000000;1819.00000000000;1837.00000000000;1861.00000000000;1817.00000000000;1814.00000000000;1787.00000000000;1850.00000000000;1807.00000000000;1806.00000000000;1813.00000000000;1822.00000000000;1845.00000000000;1831.00000000000;1832.00000000000;1852.00000000000;1843.00000000000;1836.00000000000;1835.00000000000
Gyro Y : 2086.00000000000;2101.00000000000;2109.00000000000;2099.00000000000;2093.00000000000;2088.00000000000;2075.00000000000;2097.00000000000;2089.00000000000;2110.00000000000;2091.00000000000;2087.00000000000;2097.00000000000;2100.00000000000;2080.00000000000;2081.00000000000;2094.00000000000;2086.00000000000;2080.00000000000;2090.00000000000;2108.00000000000;2116.00000000000;2083.00000000000;2101.00000000000;2091.00000000000;2079.00000000000;2083.00000000000;2095.00000000000;2100.00000000000;2091.00000000000;2105.00000000000;2091.00000000000;2078.00000000000;2108.00000000000;2077.00000000000;2084.00000000000;2085.00000000000;2059.00000000000;2085.00000000000;2113.00000000000;2052.00000000000;1958.00000000000;1982.00000000000;1933.00000000000;1814.00000000000;1773.00000000000;1665.00000000000;1772.00000000000;1747.00000000000;1574.00000000000;1672.00000000000;1643.00000000000;1745.00000000000;1723.00000000000;1735.00000000000;1782.00000000000;1827.00000000000;1885.00000000000;1886.00000000000;1957.00000000000;1959.00000000000;1936.00000000000;2031.00000000000;2041.00000000000;2011.00000000000;1991.00000000000;1941.00000000000;1950.00000000000;1871.00000000000;1821.00000000000;1833.00000000000;1742.00000000000;1702.00000000000;1674.00000000000;1639.00000000000;1556.00000000000;1552.00000000000;1490.00000000000;1430.00000000000;1342.00000000000;1328.00000000000;1295.00000000000;1310.00000000000;1227.00000000000;1116.00000000000;1175.00000000000;1235.00000000000;1189.00000000000;1189.00000000000;1216.00000000000;1206.00000000000;1255.00000000000;1253.00000000000;1315.00000000000;1295.00000000000;1268.00000000000;1256.00000000000;1229.00000000000;1272.00000000000;1274.00000000000;1365.00000000000;1373.00000000000;1376.00000000000;1529.00000000000;1742.00000000000;1807.00000000000;1726.00000000000;1930.00000000000;1895.00000000000;2013.00000000000;1930.00000000000;2004.00000000000;2141.00000000000;2057.00000000000;2138.00000000000;2157.00000000000;2105.00000000000;2171.00000000000;2194.00000000000;2176.00000000000;2173.00000000000;2146.00000000000;2175.00000000000;2171.00000000000;2138.00000000000;2148.00000000000;2137.00000000000;2103.00000000000;2129.00000000000;2147.00000000000;2144.00000000000;2102.00000000000;2147.00000000000;2123.00000000000;2125.00000000000;2106.00000000000;2113.00000000000;2115.00000000000;2096.00000000000;2091.00000000000;2087.00000000000;2107.00000000000;2103.00000000000;2086.00000000000;2095.00000000000;2115.00000000000;2105.00000000000;2091.00000000000;2101.00000000000;2069.00000000000
Gyro Z : 2645.00000000000;2683.00000000000;2668.00000000000;2674.00000000000;2667.00000000000;2665.00000000000;2711.00000000000;2678.00000000000;2666.00000000000;2654.00000000000;2639.00000000000;2646.00000000000;2636.00000000000;2657.00000000000;2639.00000000000;2665.00000000000;2650.00000000000;2655.00000000000;2645.00000000000;2642.00000000000;2650.00000000000;2650.00000000000;2650.00000000000;2649.00000000000;2675.00000000000;2651.00000000000;2647.00000000000;2653.00000000000;2673.00000000000;2651.00000000000;2634.00000000000;2655.00000000000;2659.00000000000;2647.00000000000;2591.00000000000;2540.00000000000;2535.00000000000;2473.00000000000;2355.00000000000;2095.00000000000;1915.00000000000;1819.00000000000;1697.00000000000;1456.00000000000;1219.00000000000;929.000000000000;798.000000000000;629.000000000000;457.000000000000;226.000000000000;188.000000000000;99.0000000000000;34.0000000000000;27.0000000000000;39.0000000000000;84.0000000000000;175.000000000000;210.000000000000;247.000000000000;415.000000000000;531.000000000000;623.000000000000;738.000000000000;846.000000000000;1060.00000000000;1261.00000000000;1399.00000000000;1525.00000000000;1653.00000000000;1789.00000000000;1915.00000000000;2045.00000000000;2115.00000000000;2200.00000000000;2274.00000000000;2363.00000000000;2419.00000000000;2436.00000000000;2495.00000000000;2432.00000000000;2429.00000000000;2356.00000000000;2235.00000000000;2236.00000000000;2151.00000000000;2092.00000000000;2025.00000000000;1932.00000000000;1925.00000000000;1843.00000000000;1786.00000000000;1742.00000000000;1631.00000000000;1529.00000000000;1522.00000000000;1497.00000000000;1446.00000000000;1305.00000000000;1253.00000000000;1263.00000000000;1533.00000000000;1537.00000000000;1602.00000000000;1736.00000000000;2050.00000000000;2191.00000000000;2304.00000000000;2368.00000000000;2610.00000000000;2555.00000000000;2608.00000000000;2692.00000000000;2886.00000000000;3073.00000000000;3099.00000000000;2998.00000000000;3032.00000000000;3142.00000000000;3205.00000000000;3143.00000000000;3058.00000000000;2996.00000000000;2929.00000000000;2883.00000000000;2873.00000000000;2846.00000000000;2811.00000000000;2805.00000000000;2785.00000000000;2772.00000000000;2751.00000000000;2730.00000000000;2699.00000000000;2695.00000000000;2711.00000000000;2639.00000000000;2657.00000000000;2620.00000000000;2643.00000000000;2676.00000000000;2673.00000000000;2679.00000000000;2667.00000000000;2671.00000000000;2673.00000000000;2675.00000000000;2678.00000000000;2687.00000000000;2680.00000000000;2700.00000000000
