COMMAND 4 SAMPLE 1
Accel X : 2006.00000000000;1985.00000000000;1944.00000000000;1989.00000000000;2004.00000000000;1977.00000000000;1949.00000000000;1921.00000000000;1924.00000000000;1924.00000000000;1946.00000000000;1906.00000000000;1887.00000000000;1878.00000000000;1837.00000000000;1857.00000000000;1859.00000000000;1852.00000000000;1883.00000000000;1850.00000000000;1821.00000000000;1833.00000000000;1860.00000000000;1846.00000000000;1884.00000000000;1962.00000000000;1907.00000000000;1863.00000000000;1886.00000000000;1885.00000000000;1938.00000000000;1952.00000000000;1946.00000000000;1925.00000000000;1884.00000000000;1924.00000000000;1969.00000000000;1918.00000000000;1907.00000000000;1891.00000000000;1887.00000000000;1878.00000000000;1877.00000000000;1873.00000000000;1893.00000000000;1879.00000000000;1825.00000000000;1803.00000000000;1836.00000000000;1922.00000000000;1929.00000000000;1973.00000000000;2001.00000000000;1908.00000000000;1882.00000000000;1891.00000000000;2007.00000000000;1905.00000000000;1807.00000000000;1655.00000000000;1648.00000000000;1828.00000000000;1946.00000000000;1860.00000000000;1588.00000000000;1471.00000000000;1542.00000000000;1676.00000000000;1697.00000000000;1597.00000000000;1522.00000000000;1575.00000000000;1651.00000000000;1778.00000000000;1826.00000000000;1826.00000000000;1751.00000000000;1771.00000000000;1807.00000000000;1862.00000000000;1867.00000000000;1884.00000000000;1919.00000000000;1900.00000000000;1911.00000000000;1835.00000000000;1884.00000000000;1910.00000000000;1967.00000000000;1962.00000000000;1984.00000000000;1978.00000000000;1950.00000000000;1916.00000000000;1891.00000000000;1898.00000000000;1932.00000000000;1937.00000000000;1900.00000000000;1902.00000000000;1850.00000000000;1857.00000000000;1855.00000000000;1896.00000000000;1895.00000000000;1892.00000000000;1910.00000000000;1843.00000000000;1827.00000000000;1894.00000000000;1916.00000000000;1933.00000000000;1928.00000000000;1895.00000000000;1893.00000000000;2001.00000000000;2061.00000000000;2114.00000000000;2062.00000000000;2038.00000000000;2026.00000000000;2044.00000000000;2032.00000000000;2077.00000000000;2028.00000000000;2006.00000000000;2010.00000000000;1999.00000000000;1997.00000000000;2009.00000000000;1969.00000000000;1991.00000000000;1988.00000000000;1993.00000000000;2000.00000000000;1997.00000000000;1990.00000000000;1996.00000000000;1968.00000000000;2011.00000000000;2015.00000000000;2011.00000000000;1991.00000000000;2001.00000000000;1998.00000000000;2009.00000000000;2017.00000000000;2036.00000000000;1995.00000000000;1989.00000000000
Accel Y : 1975.00000000000;1975.00000000000;1938.00000000000;1949.00000000000;1976.00000000000;1940.00000000000;1935.00000000000;1945.00000000000;1938.00000000000;1924.00000000000;1912.00000000000;1907.00000000000;1901.00000000000;1950.00000000000;1926.00000000000;1932.00000000000;1939.00000000000;1933.00000000000;1920.00000000000;1883.00000000000;1892.00000000000;1897.00000000000;1903.00000000000;1902.00000000000;1889.00000000000;1875.00000000000;1859.00000000000;1864.00000000000;1889.00000000000;1840.00000000000;1869.00000000000;1863.00000000000;1866.00000000000;1876.00000000000;1887.00000000000;1858.00000000000;1876.00000000000;1895.00000000000;1881.00000000000;1887.00000000000;1892.00000000000;1905.00000000000;1942.00000000000;1924.00000000000;1958.00000000000;1995.00000000000;2007.00000000000;2007.00000000000;2091.00000000000;2174.00000000000;2253.00000000000;2316.00000000000;2379.00000000000;2446.00000000000;2584.00000000000;2762.00000000000;2866.00000000000;2990.00000000000;3144.00000000000;3350.00000000000;3502.00000000000;3582.00000000000;3576.00000000000;3511.00000000000;3597.00000000000;3652.00000000000;3641.00000000000;3603.00000000000;3556.00000000000;3472.00000000000;3398.00000000000;3364.00000000000;3363.00000000000;3306.00000000000;3303.00000000000;3268.00000000000;3259.00000000000;3230.00000000000;3247.00000000000;3279.00000000000;3309.00000000000;3329.00000000000;3324.00000000000;3290.00000000000;3318.00000000000;3292.00000000000;3287.00000000000;3247.00000000000;3202.00000000000;3163.00000000000;3049.00000000000;2937.00000000000;2871.00000000000;2776.00000000000;2686.00000000000;2561.00000000000;2454.00000000000;2383.00000000000;2263.00000000000;2183.00000000000;2153.00000000000;2041.00000000000;1877.00000000000;1836.00000000000;1848.00000000000;1797.00000000000;1749.00000000000;1777.00000000000;1773.00000000000;1729.00000000000;1766.00000000000;1737.00000000000;1795.00000000000;1779.00000000000;1762.00000000000;1794.00000000000;1828.00000000000;1833.00000000000;1847.00000000000;1869.00000000000;1853.00000000000;1857.00000000000;1849.00000000000;1885.00000000000;1866.00000000000;1877.00000000000;1896.00000000000;1878.00000000000;1879.00000000000;1905.00000000000;1896.00000000000;1885.00000000000;1881.00000000000;1895.00000000000;1895.00000000000;1872.00000000000;1903.00000000000;1903.00000000000;1906.00000000000;1888.00000000000;1897.00000000000;1910.00000000000;1907.00000000000;1886.00000000000;1899.00000000000;1903.00000000000;1891.00000000000;1905.00000000000;1891.00000000000;1901.00000000000
Accel Z : 2599.00000000000;2594.00000000000;2613.00000000000;2652.00000000000;2660.00000000000;2651.00000000000;2670.00000000000;2688.00000000000;2708.00000000000;2725.00000000000;2705.00000000000;2700.00000000000;2691.00000000000;2707.00000000000;2694.00000000000;2679.00000000000;2671.00000000000;2674.00000000000;2684.00000000000;2685.00000000000;2655.00000000000;2655.00000000000;2627.00000000000;2610.00000000000;2643.00000000000;2612.00000000000;2606.00000000000;2618.00000000000;2592.00000000000;2597.00000000000;2607.00000000000;2592.00000000000;2553.00000000000;2562.00000000000;2575.00000000000;2562.00000000000;2571.00000000000;2551.00000000000;2534.00000000000;2520.00000000000;2484.00000000000;2457.00000000000;2411.00000000000;2344.00000000000;2206.00000000000;2106.00000000000;2037.00000000000;1998.00000000000;1961.00000000000;1908.00000000000;1864.00000000000;1830.00000000000;1980.00000000000;1966.00000000000;1926.00000000000;2086.00000000000;2084.00000000000;2203.00000000000;2327.00000000000;2446.00000000000;2331.00000000000;2428.00000000000;2711.00000000000;2858.00000000000;2848.00000000000;2675.00000000000;2640.00000000000;2895.00000000000;3018.00000000000;2921.00000000000;2823.00000000000;2805.00000000000;2764.00000000000;2747.00000000000;2679.00000000000;2621.00000000000;2548.00000000000;2565.00000000000;2537.00000000000;2532.00000000000;2526.00000000000;2484.00000000000;2479.00000000000;2475.00000000000;2441.00000000000;2450.00000000000;2487.00000000000;2417.00000000000;2432.00000000000;2360.00000000000;2317.00000000000;2290.00000000000;2248.00000000000;2243.00000000000;2208.00000000000;2155.00000000000;2179.00000000000;2160.00000000000;2149.00000000000;2117.00000000000;2050.00000000000;2061.00000000000;2121.00000000000;2163.00000000000;2151.00000000000;2197.00000000000;2233.00000000000;2248.00000000000;2272.00000000000;2372.00000000000;2381.00000000000;2397.00000000000;2429.00000000000;2489.00000000000;2509.00000000000;2599.00000000000;2602.00000000000;2646.00000000000;2669.00000000000;2647.00000000000;2663.00000000000;2688.00000000000;2666.00000000000;2683.00000000000;2656.00000000000;2675.00000000000;2662.00000000000;2643.00000000000;2669.00000000000;2643.00000000000;2671.00000000000;2659.00000000000;2637.00000000000;2642.00000000000;2646.00000000000;2627.00000000000;2664.00000000000;2681.00000000000;2667.00000000000;2677.00000000000;2622.00000000000;2635.00000000000;2655.00000000000;2647.00000000000;2652.00000000000;2639.00000000000;2653.00000000000;2670.00000000000;2665.00000000000;2640.00000000000
Gyro X : 2006.00000000000;1985.00000000000;1944.00000000000;1989.00000000000;2004.00000000000;1977.00000000000;1949.00000000000;1921.00000000000;1924.00000000000;1924.00000000000;1946.00000000000;1906.00000000000;1887.00000000000;1878.00000000000;1837.00000000000;1857.00000000000;1859.00000000000;1852.00000000000;1883.00000000000;1850.00000000000;1821.00000000000;1833.00000000000;1860.00000000000;1846.00000000000;1884.00000000000;1962.00000000000;1907.00000000000;1863.00000000000;1886.00000000000;1885.00000000000;1938.00000000000;1952.00000000000;1946.00000000000;1925.00000000000;1884.00000000000;1924.00000000000;1969.00000000000;1918.00000000000;1907.00000000000;1891.00000000000;1887.00000000000;1878.00000000000;1877.00000000000;1873.00000000000;1893.00000000000;1879.00000000000;1825.00000000000;1803.00000000000;1836.00000000000;1922.00000000000;1929.00000000000;1973.00000000000;2001.00000000000;1908.00000000000;1882.00000000000;1891.00000000000;2007.00000000000;1905.00000000000;1807.00000000000;1655.00000000000;1648.00000000000;1828.00000000000;1946.00000000000;1860.00000000000;1588.00000000000;1471.00000000000;1542.00000000000;1676.00000000000;1697.00000000000;1597.00000000000;1522.00000000000;1575.00000000000;1651.00000000000;1778.00000000000;1826.00000000000;1826.00000000000;1751.00000000000;1771.00000000000;1807.00000000000;1862.00000000000;1867.00000000000;1884.00000000000;1919.00000000000;1900.00000000000;1911.00000000000;1835.00000000000;1884.00000000000;1910.00000000000;1967.00000000000;1962.00000000000;1984.00000000000;1978.00000000000;1950.00000000000;1916.00000000000;1891.00000000000;1898.00000000000;1932.00000000000;1937.00000000000;1900.00000000000;1902.00000000000;1850.00000000000;1857.00000000000;1855.00000000000;1896.00000000000;1895.00000000000;1892.00000000000;1910.00000000000;1843.00000000000;1827.00000000000;1894.00000000000;1916.00000000000;1933.00000000000;1928.00000000000;1895.00000000000;1893.00000000000;2001.00000000000;2061.00000000000;2114.00000000000;2062.00000000000;2038.00000000000;2026.00000000000;2044.00000000000;2032.00000000000;2077.00000000000;2028.00000000000;2006.00000000000;2010.00000000000;1999.00000000000;1997.00000000000;2009.00000000000;1969.00000000000;1991.00000000000;1988.00000000000;1993.00000000000;2000.00000000000;1997.00000000000;1990.00000000000;1996.00000000000;1968.00000000000;2011.00000000000;2015.00000000000;2011.00000000000;1991.00000000000;2001.00000000000;1998.00000000000;2009.00000000000;2017.00000000000;2036.00000000000;1995.00000000000;1989.00000000000
Gyro Y : 1975.00000000000;1975.00000000000;1938.00000000000;1949.00000000000;1976.00000000000;1940.00000000000;1935.00000000000;1945.00000000000;1938.00000000000;1924.00000000000;1912.00000000000;1907.00000000000;1901.00000000000;1950.00000000000;1926.00000000000;1932.00000000000;1939.00000000000;1933.00000000000;1920.00000000000;1883.00000000000;1892.00000000000;1897.00000000000;1903.00000000000;1902.00000000000;1889.00000000000;1875.00000000000;1859.00000000000;1864.00000000000;1889.00000000000;1840.00000000000;1869.00000000000;1863.00000000000;1866.00000000000;1876.00000000000;1887.00000000000;1858.00000000000;1876.00000000000;1895.00000000000;1881.00000000000;1887.00000000000;1892.00000000000;1905.00000000000;1942.00000000000;1924.00000000000;1958.00000000000;1995.00000000000;2007.00000000000;2007.00000000000;2091.00000000000;2174.00000000000;2253.00000000000;2316.00000000000;2379.00000000000;2446.00000000000;2584.00000000000;2762.00000000000;2866.00000000000;2990.00000000000;3144.00000000000;3350.00000000000;3502.00000000000;3582.00000000000;3576.00000000000;3511.00000000000;3597.00000000000;3652.00000000000;3641.00000000000;3603.00000000000;3556.00000000000;3472.00000000000;3398.00000000000;3364.00000000000;3363.00000000000;3306.00000000000;3303.00000000000;3268.00000000000;3259.00000000000;3230.00000000000;3247.00000000000;3279.00000000000;3309.00000000000;3329.00000000000;3324.00000000000;3290.00000000000;3318.00000000000;3292.00000000000;3287.00000000000;3247.00000000000;3202.00000000000;3163.00000000000;3049.00000000000;2937.00000000000;2871.00000000000;2776.00000000000;2686.00000000000;2561.00000000000;2454.00000000000;2383.00000000000;2263.00000000000;2183.00000000000;2153.00000000000;2041.00000000000;1877.00000000000;1836.00000000000;1848.00000000000;1797.00000000000;1749.00000000000;1777.00000000000;1773.00000000000;1729.00000000000;1766.00000000000;1737.00000000000;1795.00000000000;1779.00000000000;1762.00000000000;1794.00000000000;1828.00000000000;1833.00000000000;1847.00000000000;1869.00000000000;1853.00000000000;1857.00000000000;1849.00000000000;1885.00000000000;1866.00000000000;1877.00000000000;1896.00000000000;1878.00000000000;1879.00000000000;1905.00000000000;1896.00000000000;1885.00000000000;1881.00000000000;1895.00000000000;1895.00000000000;1872.00000000000;1903.00000000000;1903.00000000000;1906.00000000000;1888.00000000000;1897.00000000000;1910.00000000000;1907.00000000000;1886.00000000000;1899.00000000000;1903.00000000000;1891.00000000000;1905.00000000000;1891.00000000000;1901.00000000000
Gyro Z : 2599.00000000000;2594.00000000000;2613.00000000000;2652.00000000000;2660.00000000000;2651.00000000000;2670.00000000000;2688.00000000000;2708.00000000000;2725.00000000000;2705.00000000000;2700.00000000000;2691.00000000000;2707.00000000000;2694.00000000000;2679.00000000000;2671.00000000000;2674.00000000000;2684.00000000000;2685.00000000000;2655.00000000000;2655.00000000000;2627.00000000000;2610.00000000000;2643.00000000000;2612.00000000000;2606.00000000000;2618.00000000000;2592.00000000000;2597.00000000000;2607.00000000000;2592.00000000000;2553.00000000000;2562.00000000000;2575.00000000000;2562.00000000000;2571.00000000000;2551.00000000000;2534.00000000000;2520.00000000000;2484.00000000000;2457.00000000000;2411.00000000000;2344.00000000000;2206.00000000000;2106.00000000000;2037.00000000000;1998.00000000000;1961.00000000000;1908.00000000000;1864.00000000000;1830.00000000000;1980.00000000000;1966.00000000000;1926.00000000000;2086.00000000000;2084.00000000000;2203.00000000000;2327.00000000000;2446.00000000000;2331.00000000000;2428.00000000000;2711.00000000000;2858.00000000000;2848.00000000000;2675.00000000000;2640.00000000000;2895.00000000000;3018.00000000000;2921.00000000000;2823.00000000000;2805.00000000000;2764.00000000000;2747.00000000000;2679.00000000000;2621.00000000000;2548.00000000000;2565.00000000000;2537.00000000000;2532.00000000000;2526.00000000000;2484.00000000000;2479.00000000000;2475.00000000000;2441.00000000000;2450.00000000000;2487.00000000000;2417.00000000000;2432.00000000000;2360.00000000000;2317.00000000000;2290.00000000000;2248.00000000000;2243.00000000000;2208.00000000000;2155.00000000000;2179.00000000000;2160.00000000000;2149.00000000000;2117.00000000000;2050.00000000000;2061.00000000000;2121.00000000000;2163.00000000000;2151.00000000000;2197.00000000000;2233.00000000000;2248.00000000000;2272.00000000000;2372.00000000000;2381.00000000000;2397.00000000000;2429.00000000000;2489.00000000000;2509.00000000000;2599.00000000000;2602.00000000000;2646.00000000000;2669.00000000000;2647.00000000000;2663.00000000000;2688.00000000000;2666.00000000000;2683.00000000000;2656.00000000000;2675.00000000000;2662.00000000000;2643.00000000000;2669.00000000000;2643.00000000000;2671.00000000000;2659.00000000000;2637.00000000000;2642.00000000000;2646.00000000000;2627.00000000000;2664.00000000000;2681.00000000000;2667.00000000000;2677.00000000000;2622.00000000000;2635.00000000000;2655.00000000000;2647.00000000000;2652.00000000000;2639.00000000000;2653.00000000000;2670.00000000000;2665.00000000000;2640.00000000000
