COMMAND 2 SAMPLE 1
Accel X : 1816.00000000000;1815.00000000000;1796.00000000000;1812.00000000000;1815.00000000000;1824.00000000000;1812.00000000000;1796.00000000000;1830.00000000000;1835.00000000000;1805.00000000000;1822.00000000000;1816.00000000000;1818.00000000000;1804.00000000000;1830.00000000000;1809.00000000000;1817.00000000000;1830.00000000000;1790.00000000000;1799.00000000000;1805.00000000000;1796.00000000000;1790.00000000000;1793.00000000000;1781.00000000000;1738.00000000000;1710.00000000000;1662.00000000000;1662.00000000000;1646.00000000000;1693.00000000000;1733.00000000000;1765.00000000000;1817.00000000000;1971.00000000000;2093.00000000000;2350.00000000000;2420.00000000000;2469.00000000000;2728.00000000000;2878.00000000000;2820.00000000000;2786.00000000000;2884.00000000000;2894.00000000000;3009.00000000000;3018.00000000000;3002.00000000000;3053.00000000000;3000.00000000000;3003.00000000000;2995.00000000000;2966.00000000000;2871.00000000000;2852.00000000000;2761.00000000000;2662.00000000000;2633.00000000000;2614.00000000000;2584.00000000000;2592.00000000000;2542.00000000000;2459.00000000000;2383.00000000000;2361.00000000000;2304.00000000000;2368.00000000000;2413.00000000000;2509.00000000000;2542.00000000000;2565.00000000000;2602.00000000000;2620.00000000000;2694.00000000000;2717.00000000000;2709.00000000000;2735.00000000000;2765.00000000000;2774.00000000000;2740.00000000000;2723.00000000000;2716.00000000000;2683.00000000000;2657.00000000000;2620.00000000000;2651.00000000000;2687.00000000000;2646.00000000000;2667.00000000000;2655.00000000000;2705.00000000000;2732.00000000000;2743.00000000000;2776.00000000000;2683.00000000000;2690.00000000000;2812.00000000000;2841.00000000000;2798.00000000000;2694.00000000000;2720.00000000000;2923.00000000000;2815.00000000000;2568.00000000000;2422.00000000000;2538.00000000000;2679.00000000000;2486.00000000000;2085.00000000000;2057.00000000000;2217.00000000000;2067.00000000000;1936.00000000000;1613.00000000000;1413.00000000000;1318.00000000000;1387.00000000000;1319.00000000000;1393.00000000000;1479.00000000000;1468.00000000000;1396.00000000000;1393.00000000000;1503.00000000000;1609.00000000000;1703.00000000000;1697.00000000000;1721.00000000000;1672.00000000000;1767.00000000000;1778.00000000000;1808.00000000000;1814.00000000000;1796.00000000000;1788.00000000000;1811.00000000000;1783.00000000000;1778.00000000000;1779.00000000000;1777.00000000000;1777.00000000000;1845.00000000000;1843.00000000000;1818.00000000000;1786.00000000000;1791.00000000000;1817.00000000000;1819.00000000000;1813.00000000000
Accel Y : 2048.00000000000;2025.00000000000;2027.00000000000;2039.00000000000;2040.00000000000;2045.00000000000;2060.00000000000;2035.00000000000;2051.00000000000;2043.00000000000;2041.00000000000;2043.00000000000;2039.00000000000;2028.00000000000;2045.00000000000;2031.00000000000;2042.00000000000;2027.00000000000;2042.00000000000;2026.00000000000;2030.00000000000;2043.00000000000;2038.00000000000;2043.00000000000;2074.00000000000;2045.00000000000;2031.00000000000;2037.00000000000;2039.00000000000;2053.00000000000;2051.00000000000;2064.00000000000;2099.00000000000;2103.00000000000;2099.00000000000;2108.00000000000;2142.00000000000;2161.00000000000;2151.00000000000;2140.00000000000;2207.00000000000;2182.00000000000;2228.00000000000;2255.00000000000;2311.00000000000;2289.00000000000;2320.00000000000;2321.00000000000;2344.00000000000;2376.00000000000;2430.00000000000;2452.00000000000;2454.00000000000;2502.00000000000;2551.00000000000;2551.00000000000;2549.00000000000;2593.00000000000;2587.00000000000;2566.00000000000;2543.00000000000;2501.00000000000;2499.00000000000;2483.00000000000;2391.00000000000;2337.00000000000;2290.00000000000;2232.00000000000;2218.00000000000;2168.00000000000;2158.00000000000;2112.00000000000;2130.00000000000;2106.00000000000;2084.00000000000;2099.00000000000;2130.00000000000;2099.00000000000;2126.00000000000;2149.00000000000;2175.00000000000;2173.00000000000;2202.00000000000;2201.00000000000;2219.00000000000;2247.00000000000;2248.00000000000;2276.00000000000;2262.00000000000;2292.00000000000;2288.00000000000;2333.00000000000;2346.00000000000;2352.00000000000;2322.00000000000;2367.00000000000;2410.00000000000;2384.00000000000;2366.00000000000;2350.00000000000;2363.00000000000;2387.00000000000;2411.00000000000;2429.00000000000;2473.00000000000;2477.00000000000;2435.00000000000;2478.00000000000;2518.00000000000;2453.00000000000;2387.00000000000;2425.00000000000;2424.00000000000;2389.00000000000;2339.00000000000;2394.00000000000;2405.00000000000;2432.00000000000;2328.00000000000;2309.00000000000;2245.00000000000;2239.00000000000;2236.00000000000;2228.00000000000;2209.00000000000;2153.00000000000;2139.00000000000;2114.00000000000;2108.00000000000;2093.00000000000;2078.00000000000;2088.00000000000;2081.00000000000;2073.00000000000;2060.00000000000;2052.00000000000;2042.00000000000;2038.00000000000;2043.00000000000;2046.00000000000;2050.00000000000;2022.00000000000;2052.00000000000;2044.00000000000;2054.00000000000;2079.00000000000;2045.00000000000;2059.00000000000;2050.00000000000;2042.00000000000
Accel Z : 2644.00000000000;2663.00000000000;2669.00000000000;2650.00000000000;2654.00000000000;2670.00000000000;2671.00000000000;2647.00000000000;2662.00000000000;2663.00000000000;2664.00000000000;2667.00000000000;2679.00000000000;2661.00000000000;2665.00000000000;2673.00000000000;2700.00000000000;2679.00000000000;2684.00000000000;2683.00000000000;2655.00000000000;2666.00000000000;2656.00000000000;2663.00000000000;2652.00000000000;2659.00000000000;2644.00000000000;2665.00000000000;2677.00000000000;2679.00000000000;2663.00000000000;2689.00000000000;2704.00000000000;2700.00000000000;2678.00000000000;2695.00000000000;2631.00000000000;2676.00000000000;2679.00000000000;2653.00000000000;2614.00000000000;2660.00000000000;2596.00000000000;2516.00000000000;2434.00000000000;2347.00000000000;2273.00000000000;2220.00000000000;2101.00000000000;1982.00000000000;1885.00000000000;1817.00000000000;1712.00000000000;1633.00000000000;1573.00000000000;1531.00000000000;1441.00000000000;1365.00000000000;1278.00000000000;1194.00000000000;1080.00000000000;1002.00000000000;882.000000000000;732.000000000000;619.000000000000;511.000000000000;438.000000000000;378.000000000000;380.000000000000;394.000000000000;340.000000000000;335.000000000000;315.000000000000;258.000000000000;209.000000000000;223.000000000000;297.000000000000;375.000000000000;415.000000000000;528.000000000000;578.000000000000;625.000000000000;684.000000000000;745.000000000000;819.000000000000;845.000000000000;879.000000000000;916.000000000000;902.000000000000;968.000000000000;985.000000000000;992.000000000000;1052.00000000000;1080.00000000000;1133.00000000000;1147.00000000000;1199.00000000000;1379.00000000000;1430.00000000000;1437.00000000000;1420.00000000000;1545.00000000000;1744.00000000000;1836.00000000000;1928.00000000000;2054.00000000000;2078.00000000000;2324.00000000000;2524.00000000000;2555.00000000000;2635.00000000000;2776.00000000000;2831.00000000000;2766.00000000000;2813.00000000000;2868.00000000000;2872.00000000000;2915.00000000000;2868.00000000000;2834.00000000000;2806.00000000000;2781.00000000000;2739.00000000000;2692.00000000000;2714.00000000000;2733.00000000000;2715.00000000000;2698.00000000000;2671.00000000000;2651.00000000000;2658.00000000000;2668.00000000000;2653.00000000000;2653.00000000000;2650.00000000000;2626.00000000000;2634.00000000000;2648.00000000000;2662.00000000000;2661.00000000000;2647.00000000000;2651.00000000000;2680.00000000000;2657.00000000000;2663.00000000000;2641.00000000000;2649.00000000000;2660.00000000000;2648.00000000000;2628.00000000000
Gyro X : 1816.00000000000;1815.00000000000;1796.00000000000;1812.00000000000;1815.00000000000;1824.00000000000;1812.00000000000;1796.00000000000;1830.00000000000;1835.00000000000;1805.00000000000;1822.00000000000;1816.00000000000;1818.00000000000;1804.00000000000;1830.00000000000;1809.00000000000;1817.00000000000;1830.00000000000;1790.00000000000;1799.00000000000;1805.00000000000;1796.00000000000;1790.00000000000;1793.00000000000;1781.00000000000;1738.00000000000;1710.00000000000;1662.00000000000;1662.00000000000;1646.00000000000;1693.00000000000;1733.00000000000;1765.00000000000;1817.00000000000;1971.00000000000;2093.00000000000;2350.00000000000;2420.00000000000;2469.00000000000;2728.00000000000;2878.00000000000;2820.00000000000;2786.00000000000;2884.00000000000;2894.00000000000;3009.00000000000;3018.00000000000;3002.00000000000;3053.00000000000;3000.00000000000;3003.00000000000;2995.00000000000;2966.00000000000;2871.00000000000;2852.00000000000;2761.00000000000;2662.00000000000;2633.00000000000;2614.00000000000;2584.00000000000;2592.00000000000;2542.00000000000;2459.00000000000;2383.00000000000;2361.00000000000;2304.00000000000;2368.00000000000;2413.00000000000;2509.00000000000;2542.00000000000;2565.00000000000;2602.00000000000;2620.00000000000;2694.00000000000;2717.00000000000;2709.00000000000;2735.00000000000;2765.00000000000;2774.00000000000;2740.00000000000;2723.00000000000;2716.00000000000;2683.00000000000;2657.00000000000;2620.00000000000;2651.00000000000;2687.00000000000;2646.00000000000;2667.00000000000;2655.00000000000;2705.00000000000;2732.00000000000;2743.00000000000;2776.00000000000;2683.00000000000;2690.00000000000;2812.00000000000;2841.00000000000;2798.00000000000;2694.00000000000;2720.00000000000;2923.00000000000;2815.00000000000;2568.00000000000;2422.00000000000;2538.00000000000;2679.00000000000;2486.00000000000;2085.00000000000;2057.00000000000;2217.00000000000;2067.00000000000;1936.00000000000;1613.00000000000;1413.00000000000;1318.00000000000;1387.00000000000;1319.00000000000;1393.00000000000;1479.00000000000;1468.00000000000;1396.00000000000;1393.00000000000;1503.00000000000;1609.00000000000;1703.00000000000;1697.00000000000;1721.00000000000;1672.00000000000;1767.00000000000;1778.00000000000;1808.00000000000;1814.00000000000;1796.00000000000;1788.00000000000;1811.00000000000;1783.00000000000;1778.00000000000;1779.00000000000;1777.00000000000;1777.00000000000;1845.00000000000;1843.00000000000;1818.00000000000;1786.00000000000;1791.00000000000;1817.00000000000;1819.00000000000;1813.00000000000
Gyro Y : 2048.00000000000;2025.00000000000;2027.00000000000;2039.00000000000;2040.00000000000;2045.00000000000;2060.00000000000;2035.00000000000;2051.00000000000;2043.00000000000;2041.00000000000;2043.00000000000;2039.00000000000;2028.00000000000;2045.00000000000;2031.00000000000;2042.00000000000;2027.00000000000;2042.00000000000;2026.00000000000;2030.00000000000;2043.00000000000;2038.00000000000;2043.00000000000;2074.00000000000;2045.00000000000;2031.00000000000;2037.00000000000;2039.00000000000;2053.00000000000;2051.00000000000;2064.00000000000;2099.00000000000;2103.00000000000;2099.00000000000;2108.00000000000;2142.00000000000;2161.00000000000;2151.00000000000;2140.00000000000;2207.00000000000;2182.00000000000;2228.00000000000;2255.00000000000;2311.00000000000;2289.00000000000;2320.00000000000;2321.00000000000;2344.00000000000;2376.00000000000;2430.00000000000;2452.00000000000;2454.00000000000;2502.00000000000;2551.00000000000;2551.00000000000;2549.00000000000;2593.00000000000;2587.00000000000;2566.00000000000;2543.00000000000;2501.00000000000;2499.00000000000;2483.00000000000;2391.00000000000;2337.00000000000;2290.00000000000;2232.00000000000;2218.00000000000;2168.00000000000;2158.00000000000;2112.00000000000;2130.00000000000;2106.00000000000;2084.00000000000;2099.00000000000;2130.00000000000;2099.00000000000;2126.00000000000;2149.00000000000;2175.00000000000;2173.00000000000;2202.00000000000;2201.00000000000;2219.00000000000;2247.00000000000;2248.00000000000;2276.00000000000;2262.00000000000;2292.00000000000;2288.00000000000;2333.00000000000;2346.00000000000;2352.00000000000;2322.00000000000;2367.00000000000;2410.00000000000;2384.00000000000;2366.00000000000;2350.00000000000;2363.00000000000;2387.00000000000;2411.00000000000;2429.00000000000;2473.00000000000;2477.00000000000;2435.00000000000;2478.00000000000;2518.00000000000;2453.00000000000;2387.00000000000;2425.00000000000;2424.00000000000;2389.00000000000;2339.00000000000;2394.00000000000;2405.00000000000;2432.00000000000;2328.00000000000;2309.00000000000;2245.00000000000;2239.00000000000;2236.00000000000;2228.00000000000;2209.00000000000;2153.00000000000;2139.00000000000;2114.00000000000;2108.00000000000;2093.00000000000;2078.00000000000;2088.00000000000;2081.00000000000;2073.00000000000;2060.00000000000;2052.00000000000;2042.00000000000;2038.00000000000;2043.00000000000;2046.00000000000;2050.00000000000;2022.00000000000;2052.00000000000;2044.00000000000;2054.00000000000;2079.00000000000;2045.00000000000;2059.00000000000;2050.00000000000;2042.00000000000
Gyro Z : 2644.00000000000;2663.00000000000;2669.00000000000;2650.00000000000;2654.00000000000;2670.00000000000;2671.00000000000;2647.00000000000;2662.00000000000;2663.00000000000;2664.00000000000;2667.00000000000;2679.00000000000;2661.00000000000;2665.00000000000;2673.00000000000;2700.00000000000;2679.00000000000;2684.00000000000;2683.00000000000;2655.00000000000;2666.00000000000;2656.00000000000;2663.00000000000;2652.00000000000;2659.00000000000;2644.00000000000;2665.00000000000;2677.00000000000;2679.00000000000;2663.00000000000;2689.00000000000;2704.00000000000;2700.00000000000;2678.00000000000;2695.00000000000;2631.00000000000;2676.00000000000;2679.00000000000;2653.00000000000;2614.00000000000;2660.00000000000;2596.00000000000;2516.00000000000;2434.00000000000;2347.00000000000;2273.00000000000;2220.00000000000;2101.00000000000;1982.00000000000;1885.00000000000;1817.00000000000;1712.00000000000;1633.00000000000;1573.00000000000;1531.00000000000;1441.00000000000;1365.00000000000;1278.00000000000;1194.00000000000;1080.00000000000;1002.00000000000;882.000000000000;732.000000000000;619.000000000000;511.000000000000;438.000000000000;378.000000000000;380.000000000000;394.000000000000;340.000000000000;335.000000000000;315.000000000000;258.000000000000;209.000000000000;223.000000000000;297.000000000000;375.000000000000;415.000000000000;528.000000000000;578.000000000000;625.000000000000;684.000000000000;745.000000000000;819.000000000000;845.000000000000;879.000000000000;916.000000000000;902.000000000000;968.000000000000;985.000000000000;992.000000000000;1052.00000000000;1080.00000000000;1133.00000000000;1147.00000000000;1199.00000000000;1379.00000000000;1430.00000000000;1437.00000000000;1420.00000000000;1545.00000000000;1744.00000000000;1836.00000000000;1928.00000000000;2054.00000000000;2078.00000000000;2324.00000000000;2524.00000000000;2555.00000000000;2635.00000000000;2776.00000000000;2831.00000000000;2766.00000000000;2813.00000000000;2868.00000000000;2872.00000000000;2915.00000000000;2868.00000000000;2834.00000000000;2806.00000000000;2781.00000000000;2739.00000000000;2692.00000000000;2714.00000000000;2733.00000000000;2715.00000000000;2698.00000000000;2671.00000000000;2651.00000000000;2658.00000000000;2668.00000000000;2653.00000000000;2653.00000000000;2650.00000000000;2626.00000000000;2634.00000000000;2648.00000000000;2662.00000000000;2661.00000000000;2647.00000000000;2651.00000000000;2680.00000000000;2657.00000000000;2663.00000000000;2641.00000000000;2649.00000000000;2660.00000000000;2648.00000000000;2628.00000000000
