COMMAND 1 SAMPLE 1
Accel X : 1846.00000000000;1835.00000000000;1824.00000000000;1869.00000000000;1855.00000000000;1856.00000000000;1855.00000000000;1850.00000000000;1850.00000000000;1872.00000000000;1872.00000000000;1863.00000000000;1845.00000000000;1842.00000000000;1849.00000000000;1835.00000000000;1863.00000000000;1850.00000000000;1848.00000000000;1838.00000000000;1816.00000000000;1850.00000000000;1864.00000000000;1863.00000000000;1837.00000000000;1858.00000000000;1848.00000000000;1865.00000000000;1859.00000000000;1862.00000000000;1835.00000000000;1836.00000000000;1862.00000000000;1882.00000000000;1830.00000000000;1789.00000000000;1749.00000000000;1806.00000000000;1833.00000000000;1884.00000000000;1893.00000000000;1842.00000000000;1946.00000000000;2132.00000000000;2242.00000000000;2275.00000000000;2365.00000000000;2553.00000000000;2981.00000000000;3204.00000000000;3288.00000000000;3247.00000000000;3126.00000000000;3061.00000000000;2897.00000000000;2698.00000000000;2495.00000000000;2394.00000000000;2213.00000000000;2071.00000000000;1844.00000000000;1632.00000000000;1518.00000000000;1438.00000000000;1281.00000000000;934.000000000000;374.000000000000;17.0000000000000;18.0000000000000;18.0000000000000;20.0000000000000;20.0000000000000;34.0000000000000;363.000000000000;504.000000000000;587.000000000000;704.000000000000;1020.00000000000;1199.00000000000;1422.00000000000;1689.00000000000;1827.00000000000;1936.00000000000;2134.00000000000;2203.00000000000;2163.00000000000;2154.00000000000;2215.00000000000;2489.00000000000;3027.00000000000;3566.00000000000;3402.00000000000;2415.00000000000;2559.00000000000;3477.00000000000;3704.00000000000;3679.00000000000;3615.00000000000;3482.00000000000;3478.00000000000;3373.00000000000;3172.00000000000;2905.00000000000;2683.00000000000;2411.00000000000;1960.00000000000;1569.00000000000;1558.00000000000;1644.00000000000;1724.00000000000;1758.00000000000;1831.00000000000;1762.00000000000;1699.00000000000;1680.00000000000;1697.00000000000;1694.00000000000;1683.00000000000;1707.00000000000;1715.00000000000;1749.00000000000;1755.00000000000;1759.00000000000;1728.00000000000;1750.00000000000;1720.00000000000;1747.00000000000;1773.00000000000;1755.00000000000;1739.00000000000;1719.00000000000;1756.00000000000;1745.00000000000;1765.00000000000;1762.00000000000;1739.00000000000;1753.00000000000;1743.00000000000;1747.00000000000;1773.00000000000;1765.00000000000;1770.00000000000;1756.00000000000;1722.00000000000;1778.00000000000;1745.00000000000;1768.00000000000;1776.00000000000;1778.00000000000;1771.00000000000
Accel Y : 2029.00000000000;2024.00000000000;2025.00000000000;2032.00000000000;2015.00000000000;2033.00000000000;2041.00000000000;2025.00000000000;2022.00000000000;2028.00000000000;2025.00000000000;2032.00000000000;2022.00000000000;2025.00000000000;2024.00000000000;2034.00000000000;2015.00000000000;2023.00000000000;2034.00000000000;2039.00000000000;2041.00000000000;2022.00000000000;2018.00000000000;2039.00000000000;2029.00000000000;2034.00000000000;2006.00000000000;2023.00000000000;2011.00000000000;2011.00000000000;2015.00000000000;2053.00000000000;2036.00000000000;2026.00000000000;2043.00000000000;2037.00000000000;2049.00000000000;2034.00000000000;2029.00000000000;2047.00000000000;2096.00000000000;2034.00000000000;1997.00000000000;2054.00000000000;2076.00000000000;2086.00000000000;2041.00000000000;2043.00000000000;2017.00000000000;1911.00000000000;1815.00000000000;1864.00000000000;1880.00000000000;1898.00000000000;1830.00000000000;1786.00000000000;1765.00000000000;1713.00000000000;1729.00000000000;1788.00000000000;1813.00000000000;1839.00000000000;1868.00000000000;1981.00000000000;2074.00000000000;2077.00000000000;2215.00000000000;2245.00000000000;2281.00000000000;2324.00000000000;2119.00000000000;2019.00000000000;2015.00000000000;1904.00000000000;1877.00000000000;1776.00000000000;1817.00000000000;1856.00000000000;1795.00000000000;1778.00000000000;1856.00000000000;1879.00000000000;1918.00000000000;1962.00000000000;1975.00000000000;2075.00000000000;2167.00000000000;2258.00000000000;2429.00000000000;2548.00000000000;2548.00000000000;2278.00000000000;1734.00000000000;1779.00000000000;2045.00000000000;1845.00000000000;1864.00000000000;1928.00000000000;1919.00000000000;1923.00000000000;1921.00000000000;1999.00000000000;2011.00000000000;2046.00000000000;2073.00000000000;1995.00000000000;1931.00000000000;1941.00000000000;1997.00000000000;1983.00000000000;1956.00000000000;1934.00000000000;1935.00000000000;1900.00000000000;1896.00000000000;1914.00000000000;1923.00000000000;1916.00000000000;1897.00000000000;1901.00000000000;1899.00000000000;1901.00000000000;1908.00000000000;1926.00000000000;1897.00000000000;1904.00000000000;1905.00000000000;1950.00000000000;1927.00000000000;1930.00000000000;1944.00000000000;1949.00000000000;1926.00000000000;1949.00000000000;1919.00000000000;1943.00000000000;1938.00000000000;1922.00000000000;1923.00000000000;1959.00000000000;1938.00000000000;1938.00000000000;1941.00000000000;1958.00000000000;1943.00000000000;1949.00000000000;1947.00000000000;1915.00000000000;1946.00000000000;1933.00000000000
Accel Z : 2647.00000000000;2662.00000000000;2668.00000000000;2670.00000000000;2659.00000000000;2653.00000000000;2679.00000000000;2664.00000000000;2654.00000000000;2666.00000000000;2667.00000000000;2663.00000000000;2678.00000000000;2666.00000000000;2659.00000000000;2674.00000000000;2684.00000000000;2670.00000000000;2674.00000000000;2662.00000000000;2661.00000000000;2655.00000000000;2669.00000000000;2665.00000000000;2662.00000000000;2660.00000000000;2681.00000000000;2670.00000000000;2702.00000000000;2687.00000000000;2684.00000000000;2688.00000000000;2701.00000000000;2691.00000000000;2699.00000000000;2680.00000000000;2695.00000000000;2728.00000000000;2798.00000000000;2820.00000000000;2827.00000000000;2761.00000000000;2790.00000000000;2796.00000000000;2870.00000000000;2765.00000000000;2661.00000000000;2629.00000000000;2408.00000000000;2316.00000000000;2305.00000000000;2184.00000000000;2086.00000000000;2013.00000000000;1982.00000000000;1958.00000000000;1866.00000000000;1803.00000000000;1724.00000000000;1703.00000000000;1615.00000000000;1530.00000000000;1472.00000000000;1478.00000000000;1541.00000000000;1591.00000000000;1732.00000000000;2077.00000000000;2258.00000000000;2034.00000000000;1793.00000000000;1776.00000000000;1744.00000000000;1811.00000000000;1809.00000000000;1675.00000000000;1581.00000000000;1579.00000000000;1578.00000000000;1550.00000000000;1552.00000000000;1620.00000000000;1551.00000000000;1455.00000000000;1521.00000000000;1575.00000000000;1551.00000000000;1624.00000000000;1682.00000000000;1940.00000000000;2111.00000000000;1821.00000000000;1528.00000000000;1852.00000000000;2172.00000000000;2171.00000000000;2162.00000000000;2153.00000000000;2105.00000000000;2168.00000000000;2281.00000000000;2364.00000000000;2438.00000000000;2526.00000000000;2543.00000000000;2562.00000000000;2602.00000000000;2677.00000000000;2711.00000000000;2662.00000000000;2602.00000000000;2585.00000000000;2581.00000000000;2582.00000000000;2606.00000000000;2580.00000000000;2609.00000000000;2602.00000000000;2624.00000000000;2634.00000000000;2640.00000000000;2646.00000000000;2620.00000000000;2612.00000000000;2627.00000000000;2638.00000000000;2630.00000000000;2625.00000000000;2605.00000000000;2618.00000000000;2619.00000000000;2635.00000000000;2627.00000000000;2654.00000000000;2637.00000000000;2641.00000000000;2656.00000000000;2649.00000000000;2667.00000000000;2672.00000000000;2652.00000000000;2648.00000000000;2648.00000000000;2654.00000000000;2660.00000000000;2668.00000000000;2660.00000000000;2661.00000000000;2669.00000000000;2685.00000000000
Gyro X : 1846.00000000000;1835.00000000000;1824.00000000000;1869.00000000000;1855.00000000000;1856.00000000000;1855.00000000000;1850.00000000000;1850.00000000000;1872.00000000000;1872.00000000000;1863.00000000000;1845.00000000000;1842.00000000000;1849.00000000000;1835.00000000000;1863.00000000000;1850.00000000000;1848.00000000000;1838.00000000000;1816.00000000000;1850.00000000000;1864.00000000000;1863.00000000000;1837.00000000000;1858.00000000000;1848.00000000000;1865.00000000000;1859.00000000000;1862.00000000000;1835.00000000000;1836.00000000000;1862.00000000000;1882.00000000000;1830.00000000000;1789.00000000000;1749.00000000000;1806.00000000000;1833.00000000000;1884.00000000000;1893.00000000000;1842.00000000000;1946.00000000000;2132.00000000000;2242.00000000000;2275.00000000000;2365.00000000000;2553.00000000000;2981.00000000000;3204.00000000000;3288.00000000000;3247.00000000000;3126.00000000000;3061.00000000000;2897.00000000000;2698.00000000000;2495.00000000000;2394.00000000000;2213.00000000000;2071.00000000000;1844.00000000000;1632.00000000000;1518.00000000000;1438.00000000000;1281.00000000000;934.000000000000;374.000000000000;17.0000000000000;18.0000000000000;18.0000000000000;20.0000000000000;20.0000000000000;34.0000000000000;363.000000000000;504.000000000000;587.000000000000;704.000000000000;1020.00000000000;1199.00000000000;1422.00000000000;1689.00000000000;1827.00000000000;1936.00000000000;2134.00000000000;2203.00000000000;2163.00000000000;2154.00000000000;2215.00000000000;2489.00000000000;3027.00000000000;3566.00000000000;3402.00000000000;2415.00000000000;2559.00000000000;3477.00000000000;3704.00000000000;3679.00000000000;3615.00000000000;3482.00000000000;3478.00000000000;3373.00000000000;3172.00000000000;2905.00000000000;2683.00000000000;2411.00000000000;1960.00000000000;1569.00000000000;1558.00000000000;1644.00000000000;1724.00000000000;1758.00000000000;1831.00000000000;1762.00000000000;1699.00000000000;1680.00000000000;1697.00000000000;1694.00000000000;1683.00000000000;1707.00000000000;1715.00000000000;1749.00000000000;1755.00000000000;1759.00000000000;1728.00000000000;1750.00000000000;1720.00000000000;1747.00000000000;1773.00000000000;1755.00000000000;1739.00000000000;1719.00000000000;1756.00000000000;1745.00000000000;1765.00000000000;1762.00000000000;1739.00000000000;1753.00000000000;1743.00000000000;1747.00000000000;1773.00000000000;1765.00000000000;1770.00000000000;1756.00000000000;1722.00000000000;1778.00000000000;1745.00000000000;1768.00000000000;1776.00000000000;1778.00000000000;1771.00000000000
Gyro Y : 2029.00000000000;2024.00000000000;2025.00000000000;2032.00000000000;2015.00000000000;2033.00000000000;2041.00000000000;2025.00000000000;2022.00000000000;2028.00000000000;2025.00000000000;2032.00000000000;2022.00000000000;2025.00000000000;2024.00000000000;2034.00000000000;2015.00000000000;2023.00000000000;2034.00000000000;2039.00000000000;2041.00000000000;2022.00000000000;2018.00000000000;2039.00000000000;2029.00000000000;2034.00000000000;2006.00000000000;2023.00000000000;2011.00000000000;2011.00000000000;2015.00000000000;2053.00000000000;2036.00000000000;2026.00000000000;2043.00000000000;2037.00000000000;2049.00000000000;2034.00000000000;2029.00000000000;2047.00000000000;2096.00000000000;2034.00000000000;1997.00000000000;2054.00000000000;2076.00000000000;2086.00000000000;2041.00000000000;2043.00000000000;2017.00000000000;1911.00000000000;1815.00000000000;1864.00000000000;1880.00000000000;1898.00000000000;1830.00000000000;1786.00000000000;1765.00000000000;1713.00000000000;1729.00000000000;1788.00000000000;1813.00000000000;1839.00000000000;1868.00000000000;1981.00000000000;2074.00000000000;2077.00000000000;2215.00000000000;2245.00000000000;2281.00000000000;2324.00000000000;2119.00000000000;2019.00000000000;2015.00000000000;1904.00000000000;1877.00000000000;1776.00000000000;1817.00000000000;1856.00000000000;1795.00000000000;1778.00000000000;1856.00000000000;1879.00000000000;1918.00000000000;1962.00000000000;1975.00000000000;2075.00000000000;2167.00000000000;2258.00000000000;2429.00000000000;2548.00000000000;2548.00000000000;2278.00000000000;1734.00000000000;1779.00000000000;2045.00000000000;1845.00000000000;1864.00000000000;1928.00000000000;1919.00000000000;1923.00000000000;1921.00000000000;1999.00000000000;2011.00000000000;2046.00000000000;2073.00000000000;1995.00000000000;1931.00000000000;1941.00000000000;1997.00000000000;1983.00000000000;1956.00000000000;1934.00000000000;1935.00000000000;1900.00000000000;1896.00000000000;1914.00000000000;1923.00000000000;1916.00000000000;1897.00000000000;1901.00000000000;1899.00000000000;1901.00000000000;1908.00000000000;1926.00000000000;1897.00000000000;1904.00000000000;1905.00000000000;1950.00000000000;1927.00000000000;1930.00000000000;1944.00000000000;1949.00000000000;1926.00000000000;1949.00000000000;1919.00000000000;1943.00000000000;1938.00000000000;1922.00000000000;1923.00000000000;1959.00000000000;1938.00000000000;1938.00000000000;1941.00000000000;1958.00000000000;1943.00000000000;1949.00000000000;1947.00000000000;1915.00000000000;1946.00000000000;1933.00000000000
Gyro Z : 2647.00000000000;2662.00000000000;2668.00000000000;2670.00000000000;2659.00000000000;2653.00000000000;2679.00000000000;2664.00000000000;2654.00000000000;2666.00000000000;2667.00000000000;2663.00000000000;2678.00000000000;2666.00000000000;2659.00000000000;2674.00000000000;2684.00000000000;2670.00000000000;2674.00000000000;2662.00000000000;2661.00000000000;2655.00000000000;2669.00000000000;2665.00000000000;2662.00000000000;2660.00000000000;2681.00000000000;2670.00000000000;2702.00000000000;2687.00000000000;2684.00000000000;2688.00000000000;2701.00000000000;2691.00000000000;2699.00000000000;2680.00000000000;2695.00000000000;2728.00000000000;2798.00000000000;2820.00000000000;2827.00000000000;2761.00000000000;2790.00000000000;2796.00000000000;2870.00000000000;2765.00000000000;2661.00000000000;2629.00000000000;2408.00000000000;2316.00000000000;2305.00000000000;2184.00000000000;2086.00000000000;2013.00000000000;1982.00000000000;1958.00000000000;1866.00000000000;1803.00000000000;1724.00000000000;1703.00000000000;1615.00000000000;1530.00000000000;1472.00000000000;1478.00000000000;1541.00000000000;1591.00000000000;1732.00000000000;2077.00000000000;2258.00000000000;2034.00000000000;1793.00000000000;1776.00000000000;1744.00000000000;1811.00000000000;1809.00000000000;1675.00000000000;1581.00000000000;1579.00000000000;1578.00000000000;1550.00000000000;1552.00000000000;1620.00000000000;1551.00000000000;1455.00000000000;1521.00000000000;1575.00000000000;1551.00000000000;1624.00000000000;1682.00000000000;1940.00000000000;2111.00000000000;1821.00000000000;1528.00000000000;1852.00000000000;2172.00000000000;2171.00000000000;2162.00000000000;2153.00000000000;2105.00000000000;2168.00000000000;2281.00000000000;2364.00000000000;2438.00000000000;2526.00000000000;2543.00000000000;2562.00000000000;2602.00000000000;2677.00000000000;2711.00000000000;2662.00000000000;2602.00000000000;2585.00000000000;2581.00000000000;2582.00000000000;2606.00000000000;2580.00000000000;2609.00000000000;2602.00000000000;2624.00000000000;2634.00000000000;2640.00000000000;2646.00000000000;2620.00000000000;2612.00000000000;2627.00000000000;2638.00000000000;2630.00000000000;2625.00000000000;2605.00000000000;2618.00000000000;2619.00000000000;2635.00000000000;2627.00000000000;2654.00000000000;2637.00000000000;2641.00000000000;2656.00000000000;2649.00000000000;2667.00000000000;2672.00000000000;2652.00000000000;2648.00000000000;2648.00000000000;2654.00000000000;2660.00000000000;2668.00000000000;2660.00000000000;2661.00000000000;2669.00000000000;2685.00000000000
