COMMAND 2 SAMPLE 1
Accel X : 1823.00000000000;1837.00000000000;1834.00000000000;1833.00000000000;1865.00000000000;1819.00000000000;1827.00000000000;1846.00000000000;1835.00000000000;1828.00000000000;1828.00000000000;1812.00000000000;1812.00000000000;1820.00000000000;1819.00000000000;1825.00000000000;1816.00000000000;1814.00000000000;1784.00000000000;1780.00000000000;1814.00000000000;1800.00000000000;1799.00000000000;1778.00000000000;1799.00000000000;1797.00000000000;1868.00000000000;1938.00000000000;1879.00000000000;1836.00000000000;1968.00000000000;2153.00000000000;2288.00000000000;2375.00000000000;2444.00000000000;2509.00000000000;2612.00000000000;2665.00000000000;2855.00000000000;2974.00000000000;2919.00000000000;2873.00000000000;3089.00000000000;3354.00000000000;3439.00000000000;3396.00000000000;3277.00000000000;3293.00000000000;3348.00000000000;3399.00000000000;3382.00000000000;3286.00000000000;3176.00000000000;3109.00000000000;3010.00000000000;2890.00000000000;2740.00000000000;2652.00000000000;2618.00000000000;2484.00000000000;2431.00000000000;2500.00000000000;2507.00000000000;2382.00000000000;2324.00000000000;2176.00000000000;2108.00000000000;2110.00000000000;2194.00000000000;2290.00000000000;2285.00000000000;2358.00000000000;2421.00000000000;2493.00000000000;2524.00000000000;2512.00000000000;2546.00000000000;2602.00000000000;2614.00000000000;2682.00000000000;2698.00000000000;2672.00000000000;2674.00000000000;2678.00000000000;2724.00000000000;2819.00000000000;2823.00000000000;2789.00000000000;2742.00000000000;2701.00000000000;2885.00000000000;2904.00000000000;2860.00000000000;2806.00000000000;2867.00000000000;2905.00000000000;2915.00000000000;2731.00000000000;2686.00000000000;2717.00000000000;2959.00000000000;3051.00000000000;2606.00000000000;2122.00000000000;1924.00000000000;1597.00000000000;1180.00000000000;862.000000000000;668.000000000000;730.000000000000;924.000000000000;1187.00000000000;1283.00000000000;1325.00000000000;1382.00000000000;1484.00000000000;1508.00000000000;1600.00000000000;1745.00000000000;1811.00000000000;1792.00000000000;1814.00000000000;1824.00000000000;1815.00000000000;1825.00000000000;1835.00000000000;1862.00000000000;1838.00000000000;1816.00000000000;1819.00000000000;1796.00000000000;1822.00000000000;1806.00000000000;1760.00000000000;1775.00000000000;1785.00000000000;1769.00000000000;1757.00000000000;1747.00000000000;1749.00000000000;1761.00000000000;1758.00000000000;1761.00000000000;1762.00000000000;1774.00000000000;1762.00000000000;1782.00000000000;1766.00000000000;1772.00000000000;1771.00000000000
Accel Y : 2007.00000000000;2034.00000000000;2029.00000000000;2061.00000000000;2049.00000000000;2033.00000000000;2018.00000000000;2036.00000000000;2038.00000000000;2032.00000000000;2026.00000000000;2023.00000000000;2041.00000000000;2035.00000000000;2032.00000000000;2029.00000000000;2033.00000000000;2022.00000000000;2036.00000000000;2016.00000000000;2040.00000000000;2021.00000000000;2006.00000000000;2025.00000000000;2024.00000000000;2039.00000000000;2035.00000000000;2017.00000000000;2020.00000000000;2018.00000000000;2071.00000000000;2042.00000000000;2020.00000000000;2045.00000000000;2063.00000000000;2033.00000000000;2056.00000000000;2031.00000000000;2021.00000000000;2064.00000000000;2152.00000000000;2175.00000000000;2123.00000000000;2187.00000000000;2275.00000000000;2362.00000000000;2410.00000000000;2473.00000000000;2541.00000000000;2608.00000000000;2696.00000000000;2807.00000000000;2885.00000000000;2966.00000000000;2988.00000000000;3102.00000000000;3086.00000000000;3058.00000000000;3073.00000000000;3056.00000000000;3028.00000000000;2966.00000000000;2883.00000000000;2758.00000000000;2619.00000000000;2434.00000000000;2355.00000000000;2264.00000000000;2076.00000000000;2008.00000000000;1991.00000000000;1941.00000000000;1929.00000000000;1925.00000000000;1970.00000000000;2023.00000000000;2038.00000000000;2082.00000000000;2139.00000000000;2125.00000000000;2163.00000000000;2230.00000000000;2259.00000000000;2308.00000000000;2379.00000000000;2392.00000000000;2411.00000000000;2447.00000000000;2418.00000000000;2525.00000000000;2605.00000000000;2603.00000000000;2625.00000000000;2618.00000000000;2654.00000000000;2688.00000000000;2742.00000000000;2752.00000000000;2699.00000000000;2602.00000000000;2698.00000000000;2666.00000000000;2587.00000000000;2550.00000000000;2538.00000000000;2461.00000000000;2392.00000000000;2373.00000000000;2352.00000000000;2288.00000000000;2237.00000000000;2190.00000000000;2128.00000000000;2119.00000000000;2082.00000000000;2163.00000000000;2112.00000000000;2041.00000000000;2097.00000000000;2084.00000000000;2075.00000000000;2063.00000000000;2053.00000000000;2040.00000000000;2025.00000000000;2016.00000000000;2059.00000000000;2033.00000000000;2018.00000000000;2025.00000000000;2043.00000000000;2007.00000000000;2021.00000000000;2000.00000000000;2015.00000000000;2023.00000000000;1989.00000000000;2028.00000000000;1999.00000000000;2034.00000000000;2029.00000000000;2014.00000000000;1991.00000000000;2013.00000000000;2019.00000000000;2009.00000000000;2029.00000000000;2006.00000000000;2012.00000000000;2023.00000000000
Accel Z : 2663.00000000000;2679.00000000000;2682.00000000000;2643.00000000000;2688.00000000000;2679.00000000000;2693.00000000000;2687.00000000000;2685.00000000000;2673.00000000000;2668.00000000000;2633.00000000000;2683.00000000000;2661.00000000000;2662.00000000000;2658.00000000000;2665.00000000000;2651.00000000000;2669.00000000000;2668.00000000000;2652.00000000000;2628.00000000000;2653.00000000000;2652.00000000000;2635.00000000000;2633.00000000000;2644.00000000000;2636.00000000000;2647.00000000000;2617.00000000000;2543.00000000000;2507.00000000000;2459.00000000000;2417.00000000000;2345.00000000000;2253.00000000000;2201.00000000000;2150.00000000000;2136.00000000000;2216.00000000000;2313.00000000000;2255.00000000000;2280.00000000000;2354.00000000000;2425.00000000000;2365.00000000000;2288.00000000000;2241.00000000000;2189.00000000000;2118.00000000000;2046.00000000000;1915.00000000000;1794.00000000000;1743.00000000000;1646.00000000000;1493.00000000000;1340.00000000000;1311.00000000000;1193.00000000000;1090.00000000000;927.000000000000;839.000000000000;804.000000000000;572.000000000000;444.000000000000;169.000000000000;99.0000000000000;41.0000000000000;27.0000000000000;27.0000000000000;25.0000000000000;28.0000000000000;32.0000000000000;53.0000000000000;119.000000000000;188.000000000000;279.000000000000;366.000000000000;415.000000000000;479.000000000000;527.000000000000;610.000000000000;632.000000000000;654.000000000000;722.000000000000;801.000000000000;861.000000000000;886.000000000000;884.000000000000;927.000000000000;1033.00000000000;1106.00000000000;1123.00000000000;1152.00000000000;1326.00000000000;1463.00000000000;1544.00000000000;1604.00000000000;1760.00000000000;1885.00000000000;2155.00000000000;2279.00000000000;2325.00000000000;2403.00000000000;2589.00000000000;2462.00000000000;2603.00000000000;2689.00000000000;2715.00000000000;2682.00000000000;2735.00000000000;2783.00000000000;2800.00000000000;2717.00000000000;2704.00000000000;2742.00000000000;2710.00000000000;2685.00000000000;2735.00000000000;2727.00000000000;2722.00000000000;2722.00000000000;2727.00000000000;2719.00000000000;2703.00000000000;2683.00000000000;2699.00000000000;2645.00000000000;2663.00000000000;2652.00000000000;2647.00000000000;2638.00000000000;2676.00000000000;2643.00000000000;2641.00000000000;2657.00000000000;2653.00000000000;2630.00000000000;2635.00000000000;2646.00000000000;2634.00000000000;2656.00000000000;2615.00000000000;2624.00000000000;2625.00000000000;2655.00000000000;2652.00000000000;2631.00000000000;2650.00000000000;2678.00000000000
Gyro X : 1823.00000000000;1837.00000000000;1834.00000000000;1833.00000000000;1865.00000000000;1819.00000000000;1827.00000000000;1846.00000000000;1835.00000000000;1828.00000000000;1828.00000000000;1812.00000000000;1812.00000000000;1820.00000000000;1819.00000000000;1825.00000000000;1816.00000000000;1814.00000000000;1784.00000000000;1780.00000000000;1814.00000000000;1800.00000000000;1799.00000000000;1778.00000000000;1799.00000000000;1797.00000000000;1868.00000000000;1938.00000000000;1879.00000000000;1836.00000000000;1968.00000000000;2153.00000000000;2288.00000000000;2375.00000000000;2444.00000000000;2509.00000000000;2612.00000000000;2665.00000000000;2855.00000000000;2974.00000000000;2919.00000000000;2873.00000000000;3089.00000000000;3354.00000000000;3439.00000000000;3396.00000000000;3277.00000000000;3293.00000000000;3348.00000000000;3399.00000000000;3382.00000000000;3286.00000000000;3176.00000000000;3109.00000000000;3010.00000000000;2890.00000000000;2740.00000000000;2652.00000000000;2618.00000000000;2484.00000000000;2431.00000000000;2500.00000000000;2507.00000000000;2382.00000000000;2324.00000000000;2176.00000000000;2108.00000000000;2110.00000000000;2194.00000000000;2290.00000000000;2285.00000000000;2358.00000000000;2421.00000000000;2493.00000000000;2524.00000000000;2512.00000000000;2546.00000000000;2602.00000000000;2614.00000000000;2682.00000000000;2698.00000000000;2672.00000000000;2674.00000000000;2678.00000000000;2724.00000000000;2819.00000000000;2823.00000000000;2789.00000000000;2742.00000000000;2701.00000000000;2885.00000000000;2904.00000000000;2860.00000000000;2806.00000000000;2867.00000000000;2905.00000000000;2915.00000000000;2731.00000000000;2686.00000000000;2717.00000000000;2959.00000000000;3051.00000000000;2606.00000000000;2122.00000000000;1924.00000000000;1597.00000000000;1180.00000000000;862.000000000000;668.000000000000;730.000000000000;924.000000000000;1187.00000000000;1283.00000000000;1325.00000000000;1382.00000000000;1484.00000000000;1508.00000000000;1600.00000000000;1745.00000000000;1811.00000000000;1792.00000000000;1814.00000000000;1824.00000000000;1815.00000000000;1825.00000000000;1835.00000000000;1862.00000000000;1838.00000000000;1816.00000000000;1819.00000000000;1796.00000000000;1822.00000000000;1806.00000000000;1760.00000000000;1775.00000000000;1785.00000000000;1769.00000000000;1757.00000000000;1747.00000000000;1749.00000000000;1761.00000000000;1758.00000000000;1761.00000000000;1762.00000000000;1774.00000000000;1762.00000000000;1782.00000000000;1766.00000000000;1772.00000000000;1771.00000000000
Gyro Y : 2007.00000000000;2034.00000000000;2029.00000000000;2061.00000000000;2049.00000000000;2033.00000000000;2018.00000000000;2036.00000000000;2038.00000000000;2032.00000000000;2026.00000000000;2023.00000000000;2041.00000000000;2035.00000000000;2032.00000000000;2029.00000000000;2033.00000000000;2022.00000000000;2036.00000000000;2016.00000000000;2040.00000000000;2021.00000000000;2006.00000000000;2025.00000000000;2024.00000000000;2039.00000000000;2035.00000000000;2017.00000000000;2020.00000000000;2018.00000000000;2071.00000000000;2042.00000000000;2020.00000000000;2045.00000000000;2063.00000000000;2033.00000000000;2056.00000000000;2031.00000000000;2021.00000000000;2064.00000000000;2152.00000000000;2175.00000000000;2123.00000000000;2187.00000000000;2275.00000000000;2362.00000000000;2410.00000000000;2473.00000000000;2541.00000000000;2608.00000000000;2696.00000000000;2807.00000000000;2885.00000000000;2966.00000000000;2988.00000000000;3102.00000000000;3086.00000000000;3058.00000000000;3073.00000000000;3056.00000000000;3028.00000000000;2966.00000000000;2883.00000000000;2758.00000000000;2619.00000000000;2434.00000000000;2355.00000000000;2264.00000000000;2076.00000000000;2008.00000000000;1991.00000000000;1941.00000000000;1929.00000000000;1925.00000000000;1970.00000000000;2023.00000000000;2038.00000000000;2082.00000000000;2139.00000000000;2125.00000000000;2163.00000000000;2230.00000000000;2259.00000000000;2308.00000000000;2379.00000000000;2392.00000000000;2411.00000000000;2447.00000000000;2418.00000000000;2525.00000000000;2605.00000000000;2603.00000000000;2625.00000000000;2618.00000000000;2654.00000000000;2688.00000000000;2742.00000000000;2752.00000000000;2699.00000000000;2602.00000000000;2698.00000000000;2666.00000000000;2587.00000000000;2550.00000000000;2538.00000000000;2461.00000000000;2392.00000000000;2373.00000000000;2352.00000000000;2288.00000000000;2237.00000000000;2190.00000000000;2128.00000000000;2119.00000000000;2082.00000000000;2163.00000000000;2112.00000000000;2041.00000000000;2097.00000000000;2084.00000000000;2075.00000000000;2063.00000000000;2053.00000000000;2040.00000000000;2025.00000000000;2016.00000000000;2059.00000000000;2033.00000000000;2018.00000000000;2025.00000000000;2043.00000000000;2007.00000000000;2021.00000000000;2000.00000000000;2015.00000000000;2023.00000000000;1989.00000000000;2028.00000000000;1999.00000000000;2034.00000000000;2029.00000000000;2014.00000000000;1991.00000000000;2013.00000000000;2019.00000000000;2009.00000000000;2029.00000000000;2006.00000000000;2012.00000000000;2023.00000000000
Gyro Z : 2663.00000000000;2679.00000000000;2682.00000000000;2643.00000000000;2688.00000000000;2679.00000000000;2693.00000000000;2687.00000000000;2685.00000000000;2673.00000000000;2668.00000000000;2633.00000000000;2683.00000000000;2661.00000000000;2662.00000000000;2658.00000000000;2665.00000000000;2651.00000000000;2669.00000000000;2668.00000000000;2652.00000000000;2628.00000000000;2653.00000000000;2652.00000000000;2635.00000000000;2633.00000000000;2644.00000000000;2636.00000000000;2647.00000000000;2617.00000000000;2543.00000000000;2507.00000000000;2459.00000000000;2417.00000000000;2345.00000000000;2253.00000000000;2201.00000000000;2150.00000000000;2136.00000000000;2216.00000000000;2313.00000000000;2255.00000000000;2280.00000000000;2354.00000000000;2425.00000000000;2365.00000000000;2288.00000000000;2241.00000000000;2189.00000000000;2118.00000000000;2046.00000000000;1915.00000000000;1794.00000000000;1743.00000000000;1646.00000000000;1493.00000000000;1340.00000000000;1311.00000000000;1193.00000000000;1090.00000000000;927.000000000000;839.000000000000;804.000000000000;572.000000000000;444.000000000000;169.000000000000;99.0000000000000;41.0000000000000;27.0000000000000;27.0000000000000;25.0000000000000;28.0000000000000;32.0000000000000;53.0000000000000;119.000000000000;188.000000000000;279.000000000000;366.000000000000;415.000000000000;479.000000000000;527.000000000000;610.000000000000;632.000000000000;654.000000000000;722.000000000000;801.000000000000;861.000000000000;886.000000000000;884.000000000000;927.000000000000;1033.00000000000;1106.00000000000;1123.00000000000;1152.00000000000;1326.00000000000;1463.00000000000;1544.00000000000;1604.00000000000;1760.00000000000;1885.00000000000;2155.00000000000;2279.00000000000;2325.00000000000;2403.00000000000;2589.00000000000;2462.00000000000;2603.00000000000;2689.00000000000;2715.00000000000;2682.00000000000;2735.00000000000;2783.00000000000;2800.00000000000;2717.00000000000;2704.00000000000;2742.00000000000;2710.00000000000;2685.00000000000;2735.00000000000;2727.00000000000;2722.00000000000;2722.00000000000;2727.00000000000;2719.00000000000;2703.00000000000;2683.00000000000;2699.00000000000;2645.00000000000;2663.00000000000;2652.00000000000;2647.00000000000;2638.00000000000;2676.00000000000;2643.00000000000;2641.00000000000;2657.00000000000;2653.00000000000;2630.00000000000;2635.00000000000;2646.00000000000;2634.00000000000;2656.00000000000;2615.00000000000;2624.00000000000;2625.00000000000;2655.00000000000;2652.00000000000;2631.00000000000;2650.00000000000;2678.00000000000
