COMMAND 3 SAMPLE 1
Accel X : 1722.00000000000;1721.00000000000;1715.00000000000;1722.00000000000;1713.00000000000;1701.00000000000;1692.00000000000;1705.00000000000;1737.00000000000;1717.00000000000;1711.00000000000;1729.00000000000;1715.00000000000;1728.00000000000;1722.00000000000;1737.00000000000;1716.00000000000;1727.00000000000;1720.00000000000;1730.00000000000;1717.00000000000;1716.00000000000;1713.00000000000;1720.00000000000;1734.00000000000;1741.00000000000;1741.00000000000;1729.00000000000;1739.00000000000;1694.00000000000;1718.00000000000;1676.00000000000;1699.00000000000;1715.00000000000;1709.00000000000;1687.00000000000;1727.00000000000;1926.00000000000;2111.00000000000;2235.00000000000;2256.00000000000;2353.00000000000;2478.00000000000;2671.00000000000;3001.00000000000;3132.00000000000;3214.00000000000;3393.00000000000;3194.00000000000;3096.00000000000;3038.00000000000;3117.00000000000;3077.00000000000;3032.00000000000;3122.00000000000;3283.00000000000;3236.00000000000;3206.00000000000;3049.00000000000;2931.00000000000;2805.00000000000;2659.00000000000;2531.00000000000;2375.00000000000;2237.00000000000;2111.00000000000;2025.00000000000;1804.00000000000;1707.00000000000;1696.00000000000;1507.00000000000;1404.00000000000;1302.00000000000;1387.00000000000;1355.00000000000;1286.00000000000;1219.00000000000;1137.00000000000;1162.00000000000;1242.00000000000;1303.00000000000;1389.00000000000;1393.00000000000;1467.00000000000;1646.00000000000;1569.00000000000;1630.00000000000;1727.00000000000;1847.00000000000;1990.00000000000;1954.00000000000;1578.00000000000;1964.00000000000;2106.00000000000;2037.00000000000;2032.00000000000;2107.00000000000;2101.00000000000;2136.00000000000;2068.00000000000;2148.00000000000;2263.00000000000;2223.00000000000;2093.00000000000;1983.00000000000;1889.00000000000;1686.00000000000;1718.00000000000;1873.00000000000;1714.00000000000;1653.00000000000;1533.00000000000;1409.00000000000;1549.00000000000;1631.00000000000;1651.00000000000;1672.00000000000;1668.00000000000;1670.00000000000;1733.00000000000;1768.00000000000;1796.00000000000;1743.00000000000;1759.00000000000;1798.00000000000;1806.00000000000;1794.00000000000;1781.00000000000;1808.00000000000;1789.00000000000;1806.00000000000;1799.00000000000;1771.00000000000;1771.00000000000;1772.00000000000;1776.00000000000;1791.00000000000;1777.00000000000;1767.00000000000;1800.00000000000;1809.00000000000;1808.00000000000;1761.00000000000;1785.00000000000;1809.00000000000;1806.00000000000;1803.00000000000;1798.00000000000;1783.00000000000;1771.00000000000
Accel Y : 2075.00000000000;2066.00000000000;2080.00000000000;2082.00000000000;2084.00000000000;2066.00000000000;2074.00000000000;2052.00000000000;2098.00000000000;2083.00000000000;2083.00000000000;2062.00000000000;2041.00000000000;2084.00000000000;2099.00000000000;2082.00000000000;2095.00000000000;2043.00000000000;2086.00000000000;2071.00000000000;2070.00000000000;2058.00000000000;2071.00000000000;2072.00000000000;2064.00000000000;2073.00000000000;2054.00000000000;2084.00000000000;2066.00000000000;2069.00000000000;2068.00000000000;2036.00000000000;2074.00000000000;2045.00000000000;2062.00000000000;2065.00000000000;2070.00000000000;2116.00000000000;2019.00000000000;2051.00000000000;2083.00000000000;2093.00000000000;1974.00000000000;1914.00000000000;1907.00000000000;1883.00000000000;1812.00000000000;1702.00000000000;1735.00000000000;1800.00000000000;1710.00000000000;1651.00000000000;1697.00000000000;1694.00000000000;1703.00000000000;1684.00000000000;1715.00000000000;1821.00000000000;1914.00000000000;1942.00000000000;2060.00000000000;2121.00000000000;2130.00000000000;2165.00000000000;2192.00000000000;2146.00000000000;2128.00000000000;2142.00000000000;2103.00000000000;2006.00000000000;1953.00000000000;1865.00000000000;1821.00000000000;1771.00000000000;1736.00000000000;1718.00000000000;1620.00000000000;1652.00000000000;1583.00000000000;1539.00000000000;1457.00000000000;1394.00000000000;1347.00000000000;1334.00000000000;1297.00000000000;1296.00000000000;1280.00000000000;1278.00000000000;1269.00000000000;1270.00000000000;1125.00000000000;1275.00000000000;1324.00000000000;1286.00000000000;1156.00000000000;1150.00000000000;1321.00000000000;1422.00000000000;1461.00000000000;1448.00000000000;1430.00000000000;1510.00000000000;1798.00000000000;1828.00000000000;1796.00000000000;1929.00000000000;2026.00000000000;1975.00000000000;2327.00000000000;2116.00000000000;2231.00000000000;2277.00000000000;2246.00000000000;2293.00000000000;2261.00000000000;2283.00000000000;2308.00000000000;2302.00000000000;2268.00000000000;2270.00000000000;2227.00000000000;2242.00000000000;2216.00000000000;2194.00000000000;2178.00000000000;2148.00000000000;2146.00000000000;2134.00000000000;2131.00000000000;2099.00000000000;2094.00000000000;2089.00000000000;2086.00000000000;2071.00000000000;2045.00000000000;2066.00000000000;2049.00000000000;2069.00000000000;2048.00000000000;2025.00000000000;2036.00000000000;2052.00000000000;2051.00000000000;2031.00000000000;2047.00000000000;2061.00000000000;2065.00000000000;2030.00000000000;2029.00000000000;2033.00000000000
Accel Z : 2641.00000000000;2645.00000000000;2648.00000000000;2643.00000000000;2624.00000000000;2647.00000000000;2657.00000000000;2662.00000000000;2623.00000000000;2637.00000000000;2653.00000000000;2656.00000000000;2661.00000000000;2655.00000000000;2642.00000000000;2677.00000000000;2636.00000000000;2658.00000000000;2653.00000000000;2686.00000000000;2656.00000000000;2678.00000000000;2653.00000000000;2656.00000000000;2667.00000000000;2659.00000000000;2639.00000000000;2628.00000000000;2629.00000000000;2613.00000000000;2597.00000000000;2595.00000000000;2580.00000000000;2586.00000000000;2573.00000000000;2514.00000000000;2439.00000000000;2392.00000000000;2352.00000000000;2288.00000000000;2099.00000000000;1942.00000000000;1799.00000000000;1465.00000000000;1167.00000000000;888.000000000000;666.000000000000;621.000000000000;562.000000000000;528.000000000000;345.000000000000;277.000000000000;118.000000000000;51.0000000000000;32.0000000000000;29.0000000000000;23.0000000000000;25.0000000000000;48.0000000000000;152.000000000000;245.000000000000;322.000000000000;492.000000000000;741.000000000000;979.000000000000;1048.00000000000;1145.00000000000;1398.00000000000;1626.00000000000;1771.00000000000;1984.00000000000;2169.00000000000;2230.00000000000;2266.00000000000;2382.00000000000;2414.00000000000;2518.00000000000;2504.00000000000;2482.00000000000;2487.00000000000;2477.00000000000;2492.00000000000;2427.00000000000;2366.00000000000;2296.00000000000;2222.00000000000;2122.00000000000;2019.00000000000;1955.00000000000;1880.00000000000;1849.00000000000;1722.00000000000;1740.00000000000;1601.00000000000;1378.00000000000;1377.00000000000;1476.00000000000;1509.00000000000;1559.00000000000;1500.00000000000;1564.00000000000;1861.00000000000;2047.00000000000;1920.00000000000;2071.00000000000;2175.00000000000;2393.00000000000;2496.00000000000;2686.00000000000;2785.00000000000;2928.00000000000;3087.00000000000;3258.00000000000;3289.00000000000;3322.00000000000;3360.00000000000;3418.00000000000;3339.00000000000;3229.00000000000;3200.00000000000;3196.00000000000;3136.00000000000;3016.00000000000;2960.00000000000;2877.00000000000;2826.00000000000;2774.00000000000;2731.00000000000;2682.00000000000;2670.00000000000;2658.00000000000;2613.00000000000;2593.00000000000;2597.00000000000;2583.00000000000;2588.00000000000;2590.00000000000;2626.00000000000;2601.00000000000;2628.00000000000;2621.00000000000;2639.00000000000;2634.00000000000;2631.00000000000;2636.00000000000;2619.00000000000;2617.00000000000;2624.00000000000;2651.00000000000;2650.00000000000
Gyro X : 1722.00000000000;1721.00000000000;1715.00000000000;1722.00000000000;1713.00000000000;1701.00000000000;1692.00000000000;1705.00000000000;1737.00000000000;1717.00000000000;1711.00000000000;1729.00000000000;1715.00000000000;1728.00000000000;1722.00000000000;1737.00000000000;1716.00000000000;1727.00000000000;1720.00000000000;1730.00000000000;1717.00000000000;1716.00000000000;1713.00000000000;1720.00000000000;1734.00000000000;1741.00000000000;1741.00000000000;1729.00000000000;1739.00000000000;1694.00000000000;1718.00000000000;1676.00000000000;1699.00000000000;1715.00000000000;1709.00000000000;1687.00000000000;1727.00000000000;1926.00000000000;2111.00000000000;2235.00000000000;2256.00000000000;2353.00000000000;2478.00000000000;2671.00000000000;3001.00000000000;3132.00000000000;3214.00000000000;3393.00000000000;3194.00000000000;3096.00000000000;3038.00000000000;3117.00000000000;3077.00000000000;3032.00000000000;3122.00000000000;3283.00000000000;3236.00000000000;3206.00000000000;3049.00000000000;2931.00000000000;2805.00000000000;2659.00000000000;2531.00000000000;2375.00000000000;2237.00000000000;2111.00000000000;2025.00000000000;1804.00000000000;1707.00000000000;1696.00000000000;1507.00000000000;1404.00000000000;1302.00000000000;1387.00000000000;1355.00000000000;1286.00000000000;1219.00000000000;1137.00000000000;1162.00000000000;1242.00000000000;1303.00000000000;1389.00000000000;1393.00000000000;1467.00000000000;1646.00000000000;1569.00000000000;1630.00000000000;1727.00000000000;1847.00000000000;1990.00000000000;1954.00000000000;1578.00000000000;1964.00000000000;2106.00000000000;2037.00000000000;2032.00000000000;2107.00000000000;2101.00000000000;2136.00000000000;2068.00000000000;2148.00000000000;2263.00000000000;2223.00000000000;2093.00000000000;1983.00000000000;1889.00000000000;1686.00000000000;1718.00000000000;1873.00000000000;1714.00000000000;1653.00000000000;1533.00000000000;1409.00000000000;1549.00000000000;1631.00000000000;1651.00000000000;1672.00000000000;1668.00000000000;1670.00000000000;1733.00000000000;1768.00000000000;1796.00000000000;1743.00000000000;1759.00000000000;1798.00000000000;1806.00000000000;1794.00000000000;1781.00000000000;1808.00000000000;1789.00000000000;1806.00000000000;1799.00000000000;1771.00000000000;1771.00000000000;1772.00000000000;1776.00000000000;1791.00000000000;1777.00000000000;1767.00000000000;1800.00000000000;1809.00000000000;1808.00000000000;1761.00000000000;1785.00000000000;1809.00000000000;1806.00000000000;1803.00000000000;1798.00000000000;1783.00000000000;1771.00000000000
Gyro Y : 2075.00000000000;2066.00000000000;2080.00000000000;2082.00000000000;2084.00000000000;2066.00000000000;2074.00000000000;2052.00000000000;2098.00000000000;2083.00000000000;2083.00000000000;2062.00000000000;2041.00000000000;2084.00000000000;2099.00000000000;2082.00000000000;2095.00000000000;2043.00000000000;2086.00000000000;2071.00000000000;2070.00000000000;2058.00000000000;2071.00000000000;2072.00000000000;2064.00000000000;2073.00000000000;2054.00000000000;2084.00000000000;2066.00000000000;2069.00000000000;2068.00000000000;2036.00000000000;2074.00000000000;2045.00000000000;2062.00000000000;2065.00000000000;2070.00000000000;2116.00000000000;2019.00000000000;2051.00000000000;2083.00000000000;2093.00000000000;1974.00000000000;1914.00000000000;1907.00000000000;1883.00000000000;1812.00000000000;1702.00000000000;1735.00000000000;1800.00000000000;1710.00000000000;1651.00000000000;1697.00000000000;1694.00000000000;1703.00000000000;1684.00000000000;1715.00000000000;1821.00000000000;1914.00000000000;1942.00000000000;2060.00000000000;2121.00000000000;2130.00000000000;2165.00000000000;2192.00000000000;2146.00000000000;2128.00000000000;2142.00000000000;2103.00000000000;2006.00000000000;1953.00000000000;1865.00000000000;1821.00000000000;1771.00000000000;1736.00000000000;1718.00000000000;1620.00000000000;1652.00000000000;1583.00000000000;1539.00000000000;1457.00000000000;1394.00000000000;1347.00000000000;1334.00000000000;1297.00000000000;1296.00000000000;1280.00000000000;1278.00000000000;1269.00000000000;1270.00000000000;1125.00000000000;1275.00000000000;1324.00000000000;1286.00000000000;1156.00000000000;1150.00000000000;1321.00000000000;1422.00000000000;1461.00000000000;1448.00000000000;1430.00000000000;1510.00000000000;1798.00000000000;1828.00000000000;1796.00000000000;1929.00000000000;2026.00000000000;1975.00000000000;2327.00000000000;2116.00000000000;2231.00000000000;2277.00000000000;2246.00000000000;2293.00000000000;2261.00000000000;2283.00000000000;2308.00000000000;2302.00000000000;2268.00000000000;2270.00000000000;2227.00000000000;2242.00000000000;2216.00000000000;2194.00000000000;2178.00000000000;2148.00000000000;2146.00000000000;2134.00000000000;2131.00000000000;2099.00000000000;2094.00000000000;2089.00000000000;2086.00000000000;2071.00000000000;2045.00000000000;2066.00000000000;2049.00000000000;2069.00000000000;2048.00000000000;2025.00000000000;2036.00000000000;2052.00000000000;2051.00000000000;2031.00000000000;2047.00000000000;2061.00000000000;2065.00000000000;2030.00000000000;2029.00000000000;2033.00000000000
Gyro Z : 2641.00000000000;2645.00000000000;2648.00000000000;2643.00000000000;2624.00000000000;2647.00000000000;2657.00000000000;2662.00000000000;2623.00000000000;2637.00000000000;2653.00000000000;2656.00000000000;2661.00000000000;2655.00000000000;2642.00000000000;2677.00000000000;2636.00000000000;2658.00000000000;2653.00000000000;2686.00000000000;2656.00000000000;2678.00000000000;2653.00000000000;2656.00000000000;2667.00000000000;2659.00000000000;2639.00000000000;2628.00000000000;2629.00000000000;2613.00000000000;2597.00000000000;2595.00000000000;2580.00000000000;2586.00000000000;2573.00000000000;2514.00000000000;2439.00000000000;2392.00000000000;2352.00000000000;2288.00000000000;2099.00000000000;1942.00000000000;1799.00000000000;1465.00000000000;1167.00000000000;888.000000000000;666.000000000000;621.000000000000;562.000000000000;528.000000000000;345.000000000000;277.000000000000;118.000000000000;51.0000000000000;32.0000000000000;29.0000000000000;23.0000000000000;25.0000000000000;48.0000000000000;152.000000000000;245.000000000000;322.000000000000;492.000000000000;741.000000000000;979.000000000000;1048.00000000000;1145.00000000000;1398.00000000000;1626.00000000000;1771.00000000000;1984.00000000000;2169.00000000000;2230.00000000000;2266.00000000000;2382.00000000000;2414.00000000000;2518.00000000000;2504.00000000000;2482.00000000000;2487.00000000000;2477.00000000000;2492.00000000000;2427.00000000000;2366.00000000000;2296.00000000000;2222.00000000000;2122.00000000000;2019.00000000000;1955.00000000000;1880.00000000000;1849.00000000000;1722.00000000000;1740.00000000000;1601.00000000000;1378.00000000000;1377.00000000000;1476.00000000000;1509.00000000000;1559.00000000000;1500.00000000000;1564.00000000000;1861.00000000000;2047.00000000000;1920.00000000000;2071.00000000000;2175.00000000000;2393.00000000000;2496.00000000000;2686.00000000000;2785.00000000000;2928.00000000000;3087.00000000000;3258.00000000000;3289.00000000000;3322.00000000000;3360.00000000000;3418.00000000000;3339.00000000000;3229.00000000000;3200.00000000000;3196.00000000000;3136.00000000000;3016.00000000000;2960.00000000000;2877.00000000000;2826.00000000000;2774.00000000000;2731.00000000000;2682.00000000000;2670.00000000000;2658.00000000000;2613.00000000000;2593.00000000000;2597.00000000000;2583.00000000000;2588.00000000000;2590.00000000000;2626.00000000000;2601.00000000000;2628.00000000000;2621.00000000000;2639.00000000000;2634.00000000000;2631.00000000000;2636.00000000000;2619.00000000000;2617.00000000000;2624.00000000000;2651.00000000000;2650.00000000000
