COMMAND 1 SAMPLE 1
Accel X : 1760.00000000000;1761.00000000000;1763.00000000000;1775.00000000000;1778.00000000000;1759.00000000000;1764.00000000000;1749.00000000000;1750.00000000000;1739.00000000000;1772.00000000000;1768.00000000000;1748.00000000000;1768.00000000000;1782.00000000000;1787.00000000000;1761.00000000000;1791.00000000000;1771.00000000000;1757.00000000000;1773.00000000000;1775.00000000000;1786.00000000000;1768.00000000000;1771.00000000000;1785.00000000000;1761.00000000000;1791.00000000000;1768.00000000000;1745.00000000000;1782.00000000000;1771.00000000000;1767.00000000000;1766.00000000000;1762.00000000000;1755.00000000000;1806.00000000000;1771.00000000000;1723.00000000000;1680.00000000000;1661.00000000000;1715.00000000000;1759.00000000000;1764.00000000000;1816.00000000000;1923.00000000000;1998.00000000000;2065.00000000000;2250.00000000000;2455.00000000000;2568.00000000000;2657.00000000000;2773.00000000000;2857.00000000000;2948.00000000000;2971.00000000000;2884.00000000000;2729.00000000000;2542.00000000000;2403.00000000000;2263.00000000000;2104.00000000000;1884.00000000000;1696.00000000000;1653.00000000000;1467.00000000000;1249.00000000000;1157.00000000000;872.000000000000;495.000000000000;25.0000000000000;18.0000000000000;19.0000000000000;21.0000000000000;21.0000000000000;25.0000000000000;304.000000000000;519.000000000000;649.000000000000;719.000000000000;804.000000000000;825.000000000000;1038.00000000000;1257.00000000000;1499.00000000000;1686.00000000000;1764.00000000000;1794.00000000000;1903.00000000000;2067.00000000000;2187.00000000000;2290.00000000000;2262.00000000000;2316.00000000000;2485.00000000000;2689.00000000000;2993.00000000000;3254.00000000000;3375.00000000000;3152.00000000000;3202.00000000000;3540.00000000000;3828.00000000000;3865.00000000000;3911.00000000000;3781.00000000000;3649.00000000000;3528.00000000000;3378.00000000000;2873.00000000000;2230.00000000000;1729.00000000000;1606.00000000000;1498.00000000000;1543.00000000000;1798.00000000000;1915.00000000000;1891.00000000000;1813.00000000000;1759.00000000000;1623.00000000000;1571.00000000000;1587.00000000000;1584.00000000000;1673.00000000000;1683.00000000000;1690.00000000000;1693.00000000000;1671.00000000000;1700.00000000000;1732.00000000000;1745.00000000000;1736.00000000000;1751.00000000000;1785.00000000000;1764.00000000000;1791.00000000000;1785.00000000000;1748.00000000000;1764.00000000000;1776.00000000000;1769.00000000000;1785.00000000000;1771.00000000000;1783.00000000000;1774.00000000000;1766.00000000000;1757.00000000000;1803.00000000000;1778.00000000000
Accel Y : 2105.00000000000;2105.00000000000;2097.00000000000;2096.00000000000;2106.00000000000;2087.00000000000;2108.00000000000;2091.00000000000;2079.00000000000;2102.00000000000;2101.00000000000;2092.00000000000;2080.00000000000;2101.00000000000;2105.00000000000;2086.00000000000;2095.00000000000;2116.00000000000;2107.00000000000;2103.00000000000;2085.00000000000;2115.00000000000;2084.00000000000;2091.00000000000;2084.00000000000;2095.00000000000;2090.00000000000;2078.00000000000;2100.00000000000;2088.00000000000;2086.00000000000;2099.00000000000;2087.00000000000;2078.00000000000;2081.00000000000;2099.00000000000;2103.00000000000;2087.00000000000;2116.00000000000;2107.00000000000;2123.00000000000;2128.00000000000;2123.00000000000;2079.00000000000;2113.00000000000;2130.00000000000;2166.00000000000;2100.00000000000;2060.00000000000;2050.00000000000;2010.00000000000;2009.00000000000;1943.00000000000;1885.00000000000;1887.00000000000;1918.00000000000;1891.00000000000;1882.00000000000;1924.00000000000;1866.00000000000;1824.00000000000;1876.00000000000;1845.00000000000;1800.00000000000;1798.00000000000;1885.00000000000;1909.00000000000;1958.00000000000;2005.00000000000;2060.00000000000;2063.00000000000;2094.00000000000;2186.00000000000;2371.00000000000;1979.00000000000;1988.00000000000;1927.00000000000;1852.00000000000;1836.00000000000;1790.00000000000;1759.00000000000;1696.00000000000;1726.00000000000;1727.00000000000;1759.00000000000;1745.00000000000;1756.00000000000;1816.00000000000;1906.00000000000;1919.00000000000;1944.00000000000;2006.00000000000;2077.00000000000;2135.00000000000;2220.00000000000;2339.00000000000;2413.00000000000;2354.00000000000;2263.00000000000;1909.00000000000;1857.00000000000;1980.00000000000;1930.00000000000;1939.00000000000;1947.00000000000;1959.00000000000;1987.00000000000;2020.00000000000;2044.00000000000;2121.00000000000;2124.00000000000;2122.00000000000;2069.00000000000;2056.00000000000;2082.00000000000;2059.00000000000;2036.00000000000;2035.00000000000;2013.00000000000;2012.00000000000;2000.00000000000;2028.00000000000;2033.00000000000;2027.00000000000;2011.00000000000;2023.00000000000;1986.00000000000;2019.00000000000;2015.00000000000;2051.00000000000;2031.00000000000;2055.00000000000;2061.00000000000;2041.00000000000;2072.00000000000;2060.00000000000;2051.00000000000;2072.00000000000;2043.00000000000;2084.00000000000;2065.00000000000;2053.00000000000;2070.00000000000;2056.00000000000;2036.00000000000;2052.00000000000;2029.00000000000;2041.00000000000;2062.00000000000;2045.00000000000
Accel Z : 2707.00000000000;2642.00000000000;2669.00000000000;2663.00000000000;2675.00000000000;2671.00000000000;2652.00000000000;2667.00000000000;2663.00000000000;2647.00000000000;2654.00000000000;2666.00000000000;2669.00000000000;2672.00000000000;2671.00000000000;2689.00000000000;2672.00000000000;2655.00000000000;2677.00000000000;2656.00000000000;2666.00000000000;2666.00000000000;2689.00000000000;2671.00000000000;2646.00000000000;2667.00000000000;2639.00000000000;2676.00000000000;2651.00000000000;2662.00000000000;2672.00000000000;2671.00000000000;2676.00000000000;2683.00000000000;2656.00000000000;2715.00000000000;2738.00000000000;2736.00000000000;2765.00000000000;2799.00000000000;2812.00000000000;2873.00000000000;2910.00000000000;2930.00000000000;2936.00000000000;2962.00000000000;2964.00000000000;2858.00000000000;2823.00000000000;2793.00000000000;2693.00000000000;2550.00000000000;2433.00000000000;2316.00000000000;2220.00000000000;2104.00000000000;1995.00000000000;1914.00000000000;1873.00000000000;1844.00000000000;1805.00000000000;1798.00000000000;1759.00000000000;1592.00000000000;1661.00000000000;1715.00000000000;1609.00000000000;1574.00000000000;1623.00000000000;1739.00000000000;2007.00000000000;2271.00000000000;2174.00000000000;2162.00000000000;2054.00000000000;1920.00000000000;1926.00000000000;1969.00000000000;1917.00000000000;1862.00000000000;1782.00000000000;1721.00000000000;1681.00000000000;1744.00000000000;1819.00000000000;1692.00000000000;1654.00000000000;1671.00000000000;1609.00000000000;1629.00000000000;1599.00000000000;1585.00000000000;1691.00000000000;1663.00000000000;1675.00000000000;1692.00000000000;1708.00000000000;1707.00000000000;1611.00000000000;1497.00000000000;1685.00000000000;1849.00000000000;1858.00000000000;1781.00000000000;1815.00000000000;1909.00000000000;1976.00000000000;1951.00000000000;2076.00000000000;2199.00000000000;2300.00000000000;2388.00000000000;2565.00000000000;2610.00000000000;2575.00000000000;2547.00000000000;2577.00000000000;2595.00000000000;2529.00000000000;2500.00000000000;2548.00000000000;2570.00000000000;2620.00000000000;2643.00000000000;2664.00000000000;2656.00000000000;2690.00000000000;2669.00000000000;2673.00000000000;2675.00000000000;2627.00000000000;2672.00000000000;2647.00000000000;2651.00000000000;2628.00000000000;2629.00000000000;2638.00000000000;2651.00000000000;2638.00000000000;2643.00000000000;2647.00000000000;2646.00000000000;2650.00000000000;2647.00000000000;2686.00000000000;2654.00000000000;2662.00000000000;2677.00000000000;2655.00000000000;2672.00000000000
Gyro X : 1760.00000000000;1761.00000000000;1763.00000000000;1775.00000000000;1778.00000000000;1759.00000000000;1764.00000000000;1749.00000000000;1750.00000000000;1739.00000000000;1772.00000000000;1768.00000000000;1748.00000000000;1768.00000000000;1782.00000000000;1787.00000000000;1761.00000000000;1791.00000000000;1771.00000000000;1757.00000000000;1773.00000000000;1775.00000000000;1786.00000000000;1768.00000000000;1771.00000000000;1785.00000000000;1761.00000000000;1791.00000000000;1768.00000000000;1745.00000000000;1782.00000000000;1771.00000000000;1767.00000000000;1766.00000000000;1762.00000000000;1755.00000000000;1806.00000000000;1771.00000000000;1723.00000000000;1680.00000000000;1661.00000000000;1715.00000000000;1759.00000000000;1764.00000000000;1816.00000000000;1923.00000000000;1998.00000000000;2065.00000000000;2250.00000000000;2455.00000000000;2568.00000000000;2657.00000000000;2773.00000000000;2857.00000000000;2948.00000000000;2971.00000000000;2884.00000000000;2729.00000000000;2542.00000000000;2403.00000000000;2263.00000000000;2104.00000000000;1884.00000000000;1696.00000000000;1653.00000000000;1467.00000000000;1249.00000000000;1157.00000000000;872.000000000000;495.000000000000;25.0000000000000;18.0000000000000;19.0000000000000;21.0000000000000;21.0000000000000;25.0000000000000;304.000000000000;519.000000000000;649.000000000000;719.000000000000;804.000000000000;825.000000000000;1038.00000000000;1257.00000000000;1499.00000000000;1686.00000000000;1764.00000000000;1794.00000000000;1903.00000000000;2067.00000000000;2187.00000000000;2290.00000000000;2262.00000000000;2316.00000000000;2485.00000000000;2689.00000000000;2993.00000000000;3254.00000000000;3375.00000000000;3152.00000000000;3202.00000000000;3540.00000000000;3828.00000000000;3865.00000000000;3911.00000000000;3781.00000000000;3649.00000000000;3528.00000000000;3378.00000000000;2873.00000000000;2230.00000000000;1729.00000000000;1606.00000000000;1498.00000000000;1543.00000000000;1798.00000000000;1915.00000000000;1891.00000000000;1813.00000000000;1759.00000000000;1623.00000000000;1571.00000000000;1587.00000000000;1584.00000000000;1673.00000000000;1683.00000000000;1690.00000000000;1693.00000000000;1671.00000000000;1700.00000000000;1732.00000000000;1745.00000000000;1736.00000000000;1751.00000000000;1785.00000000000;1764.00000000000;1791.00000000000;1785.00000000000;1748.00000000000;1764.00000000000;1776.00000000000;1769.00000000000;1785.00000000000;1771.00000000000;1783.00000000000;1774.00000000000;1766.00000000000;1757.00000000000;1803.00000000000;1778.00000000000
Gyro Y : 2105.00000000000;2105.00000000000;2097.00000000000;2096.00000000000;2106.00000000000;2087.00000000000;2108.00000000000;2091.00000000000;2079.00000000000;2102.00000000000;2101.00000000000;2092.00000000000;2080.00000000000;2101.00000000000;2105.00000000000;2086.00000000000;2095.00000000000;2116.00000000000;2107.00000000000;2103.00000000000;2085.00000000000;2115.00000000000;2084.00000000000;2091.00000000000;2084.00000000000;2095.00000000000;2090.00000000000;2078.00000000000;2100.00000000000;2088.00000000000;2086.00000000000;2099.00000000000;2087.00000000000;2078.00000000000;2081.00000000000;2099.00000000000;2103.00000000000;2087.00000000000;2116.00000000000;2107.00000000000;2123.00000000000;2128.00000000000;2123.00000000000;2079.00000000000;2113.00000000000;2130.00000000000;2166.00000000000;2100.00000000000;2060.00000000000;2050.00000000000;2010.00000000000;2009.00000000000;1943.00000000000;1885.00000000000;1887.00000000000;1918.00000000000;1891.00000000000;1882.00000000000;1924.00000000000;1866.00000000000;1824.00000000000;1876.00000000000;1845.00000000000;1800.00000000000;1798.00000000000;1885.00000000000;1909.00000000000;1958.00000000000;2005.00000000000;2060.00000000000;2063.00000000000;2094.00000000000;2186.00000000000;2371.00000000000;1979.00000000000;1988.00000000000;1927.00000000000;1852.00000000000;1836.00000000000;1790.00000000000;1759.00000000000;1696.00000000000;1726.00000000000;1727.00000000000;1759.00000000000;1745.00000000000;1756.00000000000;1816.00000000000;1906.00000000000;1919.00000000000;1944.00000000000;2006.00000000000;2077.00000000000;2135.00000000000;2220.00000000000;2339.00000000000;2413.00000000000;2354.00000000000;2263.00000000000;1909.00000000000;1857.00000000000;1980.00000000000;1930.00000000000;1939.00000000000;1947.00000000000;1959.00000000000;1987.00000000000;2020.00000000000;2044.00000000000;2121.00000000000;2124.00000000000;2122.00000000000;2069.00000000000;2056.00000000000;2082.00000000000;2059.00000000000;2036.00000000000;2035.00000000000;2013.00000000000;2012.00000000000;2000.00000000000;2028.00000000000;2033.00000000000;2027.00000000000;2011.00000000000;2023.00000000000;1986.00000000000;2019.00000000000;2015.00000000000;2051.00000000000;2031.00000000000;2055.00000000000;2061.00000000000;2041.00000000000;2072.00000000000;2060.00000000000;2051.00000000000;2072.00000000000;2043.00000000000;2084.00000000000;2065.00000000000;2053.00000000000;2070.00000000000;2056.00000000000;2036.00000000000;2052.00000000000;2029.00000000000;2041.00000000000;2062.00000000000;2045.00000000000
Gyro Z : 2707.00000000000;2642.00000000000;2669.00000000000;2663.00000000000;2675.00000000000;2671.00000000000;2652.00000000000;2667.00000000000;2663.00000000000;2647.00000000000;2654.00000000000;2666.00000000000;2669.00000000000;2672.00000000000;2671.00000000000;2689.00000000000;2672.00000000000;2655.00000000000;2677.00000000000;2656.00000000000;2666.00000000000;2666.00000000000;2689.00000000000;2671.00000000000;2646.00000000000;2667.00000000000;2639.00000000000;2676.00000000000;2651.00000000000;2662.00000000000;2672.00000000000;2671.00000000000;2676.00000000000;2683.00000000000;2656.00000000000;2715.00000000000;2738.00000000000;2736.00000000000;2765.00000000000;2799.00000000000;2812.00000000000;2873.00000000000;2910.00000000000;2930.00000000000;2936.00000000000;2962.00000000000;2964.00000000000;2858.00000000000;2823.00000000000;2793.00000000000;2693.00000000000;2550.00000000000;2433.00000000000;2316.00000000000;2220.00000000000;2104.00000000000;1995.00000000000;1914.00000000000;1873.00000000000;1844.00000000000;1805.00000000000;1798.00000000000;1759.00000000000;1592.00000000000;1661.00000000000;1715.00000000000;1609.00000000000;1574.00000000000;1623.00000000000;1739.00000000000;2007.00000000000;2271.00000000000;2174.00000000000;2162.00000000000;2054.00000000000;1920.00000000000;1926.00000000000;1969.00000000000;1917.00000000000;1862.00000000000;1782.00000000000;1721.00000000000;1681.00000000000;1744.00000000000;1819.00000000000;1692.00000000000;1654.00000000000;1671.00000000000;1609.00000000000;1629.00000000000;1599.00000000000;1585.00000000000;1691.00000000000;1663.00000000000;1675.00000000000;1692.00000000000;1708.00000000000;1707.00000000000;1611.00000000000;1497.00000000000;1685.00000000000;1849.00000000000;1858.00000000000;1781.00000000000;1815.00000000000;1909.00000000000;1976.00000000000;1951.00000000000;2076.00000000000;2199.00000000000;2300.00000000000;2388.00000000000;2565.00000000000;2610.00000000000;2575.00000000000;2547.00000000000;2577.00000000000;2595.00000000000;2529.00000000000;2500.00000000000;2548.00000000000;2570.00000000000;2620.00000000000;2643.00000000000;2664.00000000000;2656.00000000000;2690.00000000000;2669.00000000000;2673.00000000000;2675.00000000000;2627.00000000000;2672.00000000000;2647.00000000000;2651.00000000000;2628.00000000000;2629.00000000000;2638.00000000000;2651.00000000000;2638.00000000000;2643.00000000000;2647.00000000000;2646.00000000000;2650.00000000000;2647.00000000000;2686.00000000000;2654.00000000000;2662.00000000000;2677.00000000000;2655.00000000000;2672.00000000000
