COMMAND 1 SAMPLE 1
Accel X : 1870.00000000000;1843.00000000000;1830.00000000000;1866.00000000000;1842.00000000000;1833.00000000000;1855.00000000000;1849.00000000000;1841.00000000000;1843.00000000000;1835.00000000000;1841.00000000000;1872.00000000000;1868.00000000000;1836.00000000000;1815.00000000000;1846.00000000000;1847.00000000000;1840.00000000000;1828.00000000000;1837.00000000000;1829.00000000000;1844.00000000000;1829.00000000000;1825.00000000000;1815.00000000000;1776.00000000000;1797.00000000000;1816.00000000000;1881.00000000000;1940.00000000000;1960.00000000000;2044.00000000000;2160.00000000000;2329.00000000000;2455.00000000000;2572.00000000000;2689.00000000000;2777.00000000000;2843.00000000000;2856.00000000000;2848.00000000000;2933.00000000000;2844.00000000000;2753.00000000000;2787.00000000000;2768.00000000000;2676.00000000000;2639.00000000000;2475.00000000000;2338.00000000000;2219.00000000000;2087.00000000000;1939.00000000000;1856.00000000000;1824.00000000000;1734.00000000000;1645.00000000000;1552.00000000000;1419.00000000000;1290.00000000000;1232.00000000000;1138.00000000000;993.000000000000;746.000000000000;507.000000000000;140.000000000000;21.0000000000000;19.0000000000000;21.0000000000000;23.0000000000000;152.000000000000;509.000000000000;685.000000000000;676.000000000000;774.000000000000;1000.00000000000;1181.00000000000;1326.00000000000;1563.00000000000;1688.00000000000;1729.00000000000;1848.00000000000;1938.00000000000;2073.00000000000;2149.00000000000;2176.00000000000;2328.00000000000;2373.00000000000;2415.00000000000;2668.00000000000;3087.00000000000;3199.00000000000;3383.00000000000;3160.00000000000;2688.00000000000;2970.00000000000;3514.00000000000;3699.00000000000;3631.00000000000;3503.00000000000;3434.00000000000;3468.00000000000;3558.00000000000;3443.00000000000;2946.00000000000;2270.00000000000;2312.00000000000;2775.00000000000;2776.00000000000;2390.00000000000;2182.00000000000;2213.00000000000;2198.00000000000;2056.00000000000;1847.00000000000;1676.00000000000;1647.00000000000;1597.00000000000;1662.00000000000;1684.00000000000;1636.00000000000;1684.00000000000;1647.00000000000;1574.00000000000;1580.00000000000;1575.00000000000;1607.00000000000;1679.00000000000;1669.00000000000;1650.00000000000;1624.00000000000;1650.00000000000;1697.00000000000;1707.00000000000;1704.00000000000;1686.00000000000;1673.00000000000;1695.00000000000;1710.00000000000;1697.00000000000;1717.00000000000;1713.00000000000;1722.00000000000;1721.00000000000;1733.00000000000;1718.00000000000;1724.00000000000;1732.00000000000;1756.00000000000
Accel Y : 2075.00000000000;2066.00000000000;2059.00000000000;2074.00000000000;2058.00000000000;2058.00000000000;2051.00000000000;2061.00000000000;2050.00000000000;2057.00000000000;2054.00000000000;2046.00000000000;2035.00000000000;2055.00000000000;2037.00000000000;2039.00000000000;2065.00000000000;2056.00000000000;2055.00000000000;2037.00000000000;2075.00000000000;2044.00000000000;2073.00000000000;2051.00000000000;2062.00000000000;2064.00000000000;2064.00000000000;2054.00000000000;2047.00000000000;2056.00000000000;2042.00000000000;2057.00000000000;1999.00000000000;1987.00000000000;1977.00000000000;1959.00000000000;1933.00000000000;1899.00000000000;1881.00000000000;1835.00000000000;1791.00000000000;1769.00000000000;1753.00000000000;1749.00000000000;1724.00000000000;1666.00000000000;1635.00000000000;1632.00000000000;1653.00000000000;1585.00000000000;1535.00000000000;1575.00000000000;1547.00000000000;1512.00000000000;1493.00000000000;1518.00000000000;1558.00000000000;1551.00000000000;1522.00000000000;1541.00000000000;1579.00000000000;1593.00000000000;1668.00000000000;1733.00000000000;1749.00000000000;1819.00000000000;1813.00000000000;1842.00000000000;1897.00000000000;1884.00000000000;1816.00000000000;1790.00000000000;1738.00000000000;1704.00000000000;1694.00000000000;1679.00000000000;1676.00000000000;1667.00000000000;1641.00000000000;1663.00000000000;1633.00000000000;1603.00000000000;1711.00000000000;1759.00000000000;1771.00000000000;1824.00000000000;1893.00000000000;1963.00000000000;1985.00000000000;2062.00000000000;2281.00000000000;2358.00000000000;2310.00000000000;2305.00000000000;2083.00000000000;1933.00000000000;2020.00000000000;2016.00000000000;1947.00000000000;2016.00000000000;2036.00000000000;2027.00000000000;2042.00000000000;2049.00000000000;2109.00000000000;2118.00000000000;2097.00000000000;2187.00000000000;2158.00000000000;2116.00000000000;2107.00000000000;2106.00000000000;2090.00000000000;2086.00000000000;2070.00000000000;2074.00000000000;2077.00000000000;2084.00000000000;2078.00000000000;2068.00000000000;2023.00000000000;2028.00000000000;2008.00000000000;2010.00000000000;2023.00000000000;2029.00000000000;2055.00000000000;2048.00000000000;2061.00000000000;2053.00000000000;2062.00000000000;2064.00000000000;2079.00000000000;2089.00000000000;2086.00000000000;2064.00000000000;2060.00000000000;2085.00000000000;2064.00000000000;2080.00000000000;2059.00000000000;2082.00000000000;2085.00000000000;2082.00000000000;2071.00000000000;2079.00000000000;2067.00000000000;2074.00000000000;2084.00000000000;2077.00000000000
Accel Z : 2669.00000000000;2674.00000000000;2671.00000000000;2677.00000000000;2671.00000000000;2670.00000000000;2676.00000000000;2691.00000000000;2670.00000000000;2661.00000000000;2655.00000000000;2685.00000000000;2650.00000000000;2702.00000000000;2669.00000000000;2667.00000000000;2668.00000000000;2681.00000000000;2665.00000000000;2676.00000000000;2690.00000000000;2701.00000000000;2703.00000000000;2710.00000000000;2750.00000000000;2732.00000000000;2738.00000000000;2748.00000000000;2762.00000000000;2789.00000000000;2805.00000000000;2801.00000000000;2803.00000000000;2789.00000000000;2735.00000000000;2669.00000000000;2590.00000000000;2560.00000000000;2513.00000000000;2431.00000000000;2375.00000000000;2292.00000000000;2248.00000000000;2190.00000000000;2077.00000000000;2003.00000000000;1963.00000000000;1922.00000000000;1885.00000000000;1876.00000000000;1856.00000000000;1793.00000000000;1785.00000000000;1769.00000000000;1712.00000000000;1700.00000000000;1700.00000000000;1725.00000000000;1637.00000000000;1650.00000000000;1601.00000000000;1617.00000000000;1665.00000000000;1745.00000000000;1825.00000000000;1970.00000000000;2149.00000000000;2253.00000000000;2193.00000000000;2031.00000000000;1994.00000000000;1971.00000000000;1977.00000000000;1986.00000000000;1895.00000000000;1849.00000000000;1739.00000000000;1714.00000000000;1704.00000000000;1742.00000000000;1768.00000000000;1657.00000000000;1638.00000000000;1571.00000000000;1565.00000000000;1567.00000000000;1588.00000000000;1620.00000000000;1608.00000000000;1529.00000000000;1797.00000000000;1904.00000000000;1785.00000000000;1815.00000000000;1630.00000000000;1621.00000000000;1848.00000000000;1947.00000000000;1962.00000000000;1927.00000000000;1921.00000000000;1876.00000000000;1952.00000000000;2039.00000000000;2151.00000000000;2275.00000000000;2449.00000000000;2464.00000000000;2397.00000000000;2445.00000000000;2498.00000000000;2517.00000000000;2533.00000000000;2489.00000000000;2478.00000000000;2496.00000000000;2529.00000000000;2553.00000000000;2591.00000000000;2559.00000000000;2599.00000000000;2623.00000000000;2639.00000000000;2614.00000000000;2604.00000000000;2592.00000000000;2648.00000000000;2654.00000000000;2672.00000000000;2648.00000000000;2634.00000000000;2637.00000000000;2642.00000000000;2637.00000000000;2680.00000000000;2630.00000000000;2630.00000000000;2649.00000000000;2639.00000000000;2624.00000000000;2648.00000000000;2647.00000000000;2648.00000000000;2652.00000000000;2632.00000000000;2649.00000000000;2638.00000000000;2669.00000000000;2659.00000000000;2658.00000000000
Gyro X : 1870.00000000000;1843.00000000000;1830.00000000000;1866.00000000000;1842.00000000000;1833.00000000000;1855.00000000000;1849.00000000000;1841.00000000000;1843.00000000000;1835.00000000000;1841.00000000000;1872.00000000000;1868.00000000000;1836.00000000000;1815.00000000000;1846.00000000000;1847.00000000000;1840.00000000000;1828.00000000000;1837.00000000000;1829.00000000000;1844.00000000000;1829.00000000000;1825.00000000000;1815.00000000000;1776.00000000000;1797.00000000000;1816.00000000000;1881.00000000000;1940.00000000000;1960.00000000000;2044.00000000000;2160.00000000000;2329.00000000000;2455.00000000000;2572.00000000000;2689.00000000000;2777.00000000000;2843.00000000000;2856.00000000000;2848.00000000000;2933.00000000000;2844.00000000000;2753.00000000000;2787.00000000000;2768.00000000000;2676.00000000000;2639.00000000000;2475.00000000000;2338.00000000000;2219.00000000000;2087.00000000000;1939.00000000000;1856.00000000000;1824.00000000000;1734.00000000000;1645.00000000000;1552.00000000000;1419.00000000000;1290.00000000000;1232.00000000000;1138.00000000000;993.000000000000;746.000000000000;507.000000000000;140.000000000000;21.0000000000000;19.0000000000000;21.0000000000000;23.0000000000000;152.000000000000;509.000000000000;685.000000000000;676.000000000000;774.000000000000;1000.00000000000;1181.00000000000;1326.00000000000;1563.00000000000;1688.00000000000;1729.00000000000;1848.00000000000;1938.00000000000;2073.00000000000;2149.00000000000;2176.00000000000;2328.00000000000;2373.00000000000;2415.00000000000;2668.00000000000;3087.00000000000;3199.00000000000;3383.00000000000;3160.00000000000;2688.00000000000;2970.00000000000;3514.00000000000;3699.00000000000;3631.00000000000;3503.00000000000;3434.00000000000;3468.00000000000;3558.00000000000;3443.00000000000;2946.00000000000;2270.00000000000;2312.00000000000;2775.00000000000;2776.00000000000;2390.00000000000;2182.00000000000;2213.00000000000;2198.00000000000;2056.00000000000;1847.00000000000;1676.00000000000;1647.00000000000;1597.00000000000;1662.00000000000;1684.00000000000;1636.00000000000;1684.00000000000;1647.00000000000;1574.00000000000;1580.00000000000;1575.00000000000;1607.00000000000;1679.00000000000;1669.00000000000;1650.00000000000;1624.00000000000;1650.00000000000;1697.00000000000;1707.00000000000;1704.00000000000;1686.00000000000;1673.00000000000;1695.00000000000;1710.00000000000;1697.00000000000;1717.00000000000;1713.00000000000;1722.00000000000;1721.00000000000;1733.00000000000;1718.00000000000;1724.00000000000;1732.00000000000;1756.00000000000
Gyro Y : 2075.00000000000;2066.00000000000;2059.00000000000;2074.00000000000;2058.00000000000;2058.00000000000;2051.00000000000;2061.00000000000;2050.00000000000;2057.00000000000;2054.00000000000;2046.00000000000;2035.00000000000;2055.00000000000;2037.00000000000;2039.00000000000;2065.00000000000;2056.00000000000;2055.00000000000;2037.00000000000;2075.00000000000;2044.00000000000;2073.00000000000;2051.00000000000;2062.00000000000;2064.00000000000;2064.00000000000;2054.00000000000;2047.00000000000;2056.00000000000;2042.00000000000;2057.00000000000;1999.00000000000;1987.00000000000;1977.00000000000;1959.00000000000;1933.00000000000;1899.00000000000;1881.00000000000;1835.00000000000;1791.00000000000;1769.00000000000;1753.00000000000;1749.00000000000;1724.00000000000;1666.00000000000;1635.00000000000;1632.00000000000;1653.00000000000;1585.00000000000;1535.00000000000;1575.00000000000;1547.00000000000;1512.00000000000;1493.00000000000;1518.00000000000;1558.00000000000;1551.00000000000;1522.00000000000;1541.00000000000;1579.00000000000;1593.00000000000;1668.00000000000;1733.00000000000;1749.00000000000;1819.00000000000;1813.00000000000;1842.00000000000;1897.00000000000;1884.00000000000;1816.00000000000;1790.00000000000;1738.00000000000;1704.00000000000;1694.00000000000;1679.00000000000;1676.00000000000;1667.00000000000;1641.00000000000;1663.00000000000;1633.00000000000;1603.00000000000;1711.00000000000;1759.00000000000;1771.00000000000;1824.00000000000;1893.00000000000;1963.00000000000;1985.00000000000;2062.00000000000;2281.00000000000;2358.00000000000;2310.00000000000;2305.00000000000;2083.00000000000;1933.00000000000;2020.00000000000;2016.00000000000;1947.00000000000;2016.00000000000;2036.00000000000;2027.00000000000;2042.00000000000;2049.00000000000;2109.00000000000;2118.00000000000;2097.00000000000;2187.00000000000;2158.00000000000;2116.00000000000;2107.00000000000;2106.00000000000;2090.00000000000;2086.00000000000;2070.00000000000;2074.00000000000;2077.00000000000;2084.00000000000;2078.00000000000;2068.00000000000;2023.00000000000;2028.00000000000;2008.00000000000;2010.00000000000;2023.00000000000;2029.00000000000;2055.00000000000;2048.00000000000;2061.00000000000;2053.00000000000;2062.00000000000;2064.00000000000;2079.00000000000;2089.00000000000;2086.00000000000;2064.00000000000;2060.00000000000;2085.00000000000;2064.00000000000;2080.00000000000;2059.00000000000;2082.00000000000;2085.00000000000;2082.00000000000;2071.00000000000;2079.00000000000;2067.00000000000;2074.00000000000;2084.00000000000;2077.00000000000
Gyro Z : 2669.00000000000;2674.00000000000;2671.00000000000;2677.00000000000;2671.00000000000;2670.00000000000;2676.00000000000;2691.00000000000;2670.00000000000;2661.00000000000;2655.00000000000;2685.00000000000;2650.00000000000;2702.00000000000;2669.00000000000;2667.00000000000;2668.00000000000;2681.00000000000;2665.00000000000;2676.00000000000;2690.00000000000;2701.00000000000;2703.00000000000;2710.00000000000;2750.00000000000;2732.00000000000;2738.00000000000;2748.00000000000;2762.00000000000;2789.00000000000;2805.00000000000;2801.00000000000;2803.00000000000;2789.00000000000;2735.00000000000;2669.00000000000;2590.00000000000;2560.00000000000;2513.00000000000;2431.00000000000;2375.00000000000;2292.00000000000;2248.00000000000;2190.00000000000;2077.00000000000;2003.00000000000;1963.00000000000;1922.00000000000;1885.00000000000;1876.00000000000;1856.00000000000;1793.00000000000;1785.00000000000;1769.00000000000;1712.00000000000;1700.00000000000;1700.00000000000;1725.00000000000;1637.00000000000;1650.00000000000;1601.00000000000;1617.00000000000;1665.00000000000;1745.00000000000;1825.00000000000;1970.00000000000;2149.00000000000;2253.00000000000;2193.00000000000;2031.00000000000;1994.00000000000;1971.00000000000;1977.00000000000;1986.00000000000;1895.00000000000;1849.00000000000;1739.00000000000;1714.00000000000;1704.00000000000;1742.00000000000;1768.00000000000;1657.00000000000;1638.00000000000;1571.00000000000;1565.00000000000;1567.00000000000;1588.00000000000;1620.00000000000;1608.00000000000;1529.00000000000;1797.00000000000;1904.00000000000;1785.00000000000;1815.00000000000;1630.00000000000;1621.00000000000;1848.00000000000;1947.00000000000;1962.00000000000;1927.00000000000;1921.00000000000;1876.00000000000;1952.00000000000;2039.00000000000;2151.00000000000;2275.00000000000;2449.00000000000;2464.00000000000;2397.00000000000;2445.00000000000;2498.00000000000;2517.00000000000;2533.00000000000;2489.00000000000;2478.00000000000;2496.00000000000;2529.00000000000;2553.00000000000;2591.00000000000;2559.00000000000;2599.00000000000;2623.00000000000;2639.00000000000;2614.00000000000;2604.00000000000;2592.00000000000;2648.00000000000;2654.00000000000;2672.00000000000;2648.00000000000;2634.00000000000;2637.00000000000;2642.00000000000;2637.00000000000;2680.00000000000;2630.00000000000;2630.00000000000;2649.00000000000;2639.00000000000;2624.00000000000;2648.00000000000;2647.00000000000;2648.00000000000;2652.00000000000;2632.00000000000;2649.00000000000;2638.00000000000;2669.00000000000;2659.00000000000;2658.00000000000
