COMMAND 2 SAMPLE 1
Accel X : 1754.00000000000;1790.00000000000;1802.00000000000;1792.00000000000;1779.00000000000;1777.00000000000;1778.00000000000;1783.00000000000;1772.00000000000;1745.00000000000;1771.00000000000;1760.00000000000;1771.00000000000;1779.00000000000;1788.00000000000;1752.00000000000;1757.00000000000;1779.00000000000;1783.00000000000;1781.00000000000;1781.00000000000;1807.00000000000;1783.00000000000;1787.00000000000;1744.00000000000;1767.00000000000;1787.00000000000;1788.00000000000;1804.00000000000;1805.00000000000;1770.00000000000;1768.00000000000;1753.00000000000;1719.00000000000;1674.00000000000;1738.00000000000;1925.00000000000;1840.00000000000;1693.00000000000;1913.00000000000;2330.00000000000;2480.00000000000;2494.00000000000;2584.00000000000;2676.00000000000;2766.00000000000;2751.00000000000;2865.00000000000;2947.00000000000;2983.00000000000;3007.00000000000;3132.00000000000;3135.00000000000;3256.00000000000;3246.00000000000;3252.00000000000;3132.00000000000;3127.00000000000;3109.00000000000;3109.00000000000;3028.00000000000;2980.00000000000;2857.00000000000;2684.00000000000;2537.00000000000;2510.00000000000;2562.00000000000;2622.00000000000;2575.00000000000;2423.00000000000;2304.00000000000;2228.00000000000;2279.00000000000;2293.00000000000;2300.00000000000;2430.00000000000;2432.00000000000;2424.00000000000;2531.00000000000;2543.00000000000;2587.00000000000;2598.00000000000;2648.00000000000;2636.00000000000;2652.00000000000;2704.00000000000;2753.00000000000;2735.00000000000;2850.00000000000;2787.00000000000;2795.00000000000;2768.00000000000;2817.00000000000;2888.00000000000;2893.00000000000;2909.00000000000;2886.00000000000;2907.00000000000;2896.00000000000;2933.00000000000;2977.00000000000;2934.00000000000;2913.00000000000;2832.00000000000;2783.00000000000;2940.00000000000;3017.00000000000;2796.00000000000;2732.00000000000;2664.00000000000;2719.00000000000;2589.00000000000;2209.00000000000;1837.00000000000;1521.00000000000;1328.00000000000;1267.00000000000;1162.00000000000;1026.00000000000;1173.00000000000;1207.00000000000;1150.00000000000;1273.00000000000;1358.00000000000;1414.00000000000;1417.00000000000;1388.00000000000;1421.00000000000;1547.00000000000;1515.00000000000;1545.00000000000;1595.00000000000;1665.00000000000;1718.00000000000;1716.00000000000;1651.00000000000;1648.00000000000;1674.00000000000;1687.00000000000;1717.00000000000;1735.00000000000;1666.00000000000;1652.00000000000;1661.00000000000;1662.00000000000;1682.00000000000;1695.00000000000;1681.00000000000;1631.00000000000;1686.00000000000
Accel Y : 2015.00000000000;2005.00000000000;2011.00000000000;2019.00000000000;2031.00000000000;2021.00000000000;2006.00000000000;2018.00000000000;2025.00000000000;2017.00000000000;2009.00000000000;2039.00000000000;2027.00000000000;2004.00000000000;2018.00000000000;2017.00000000000;2024.00000000000;2020.00000000000;2011.00000000000;2029.00000000000;2033.00000000000;2012.00000000000;2027.00000000000;2013.00000000000;2017.00000000000;2014.00000000000;2028.00000000000;2026.00000000000;2026.00000000000;2019.00000000000;2020.00000000000;2027.00000000000;2025.00000000000;2031.00000000000;2025.00000000000;2004.00000000000;2037.00000000000;2015.00000000000;2044.00000000000;2055.00000000000;2053.00000000000;2077.00000000000;2054.00000000000;2063.00000000000;2122.00000000000;2136.00000000000;2116.00000000000;2151.00000000000;2199.00000000000;2249.00000000000;2295.00000000000;2347.00000000000;2368.00000000000;2442.00000000000;2499.00000000000;2589.00000000000;2703.00000000000;2794.00000000000;2811.00000000000;2896.00000000000;2965.00000000000;2990.00000000000;3064.00000000000;3089.00000000000;3058.00000000000;3015.00000000000;2980.00000000000;2871.00000000000;2792.00000000000;2654.00000000000;2578.00000000000;2504.00000000000;2361.00000000000;2181.00000000000;2107.00000000000;2085.00000000000;1995.00000000000;2002.00000000000;1996.00000000000;2014.00000000000;2078.00000000000;2064.00000000000;2073.00000000000;2125.00000000000;2152.00000000000;2231.00000000000;2242.00000000000;2273.00000000000;2320.00000000000;2324.00000000000;2342.00000000000;2341.00000000000;2424.00000000000;2461.00000000000;2443.00000000000;2458.00000000000;2478.00000000000;2483.00000000000;2447.00000000000;2505.00000000000;2473.00000000000;2506.00000000000;2499.00000000000;2501.00000000000;2437.00000000000;2446.00000000000;2410.00000000000;2371.00000000000;2305.00000000000;2231.00000000000;2325.00000000000;2232.00000000000;2104.00000000000;2117.00000000000;2199.00000000000;2250.00000000000;2196.00000000000;2211.00000000000;2108.00000000000;2098.00000000000;2117.00000000000;2064.00000000000;2050.00000000000;2062.00000000000;2028.00000000000;2049.00000000000;2014.00000000000;2039.00000000000;2042.00000000000;2020.00000000000;2001.00000000000;2024.00000000000;2021.00000000000;2004.00000000000;2026.00000000000;2001.00000000000;1991.00000000000;2004.00000000000;1989.00000000000;1990.00000000000;2008.00000000000;2006.00000000000;1996.00000000000;2006.00000000000;1998.00000000000;2006.00000000000;2001.00000000000;2006.00000000000;2015.00000000000;2031.00000000000
Accel Z : 2651.00000000000;2653.00000000000;2653.00000000000;2654.00000000000;2648.00000000000;2658.00000000000;2668.00000000000;2650.00000000000;2644.00000000000;2655.00000000000;2657.00000000000;2667.00000000000;2654.00000000000;2658.00000000000;2660.00000000000;2663.00000000000;2664.00000000000;2682.00000000000;2652.00000000000;2666.00000000000;2676.00000000000;2646.00000000000;2663.00000000000;2655.00000000000;2658.00000000000;2681.00000000000;2672.00000000000;2685.00000000000;2667.00000000000;2661.00000000000;2668.00000000000;2653.00000000000;2671.00000000000;2657.00000000000;2653.00000000000;2635.00000000000;2623.00000000000;2640.00000000000;2565.00000000000;2429.00000000000;2366.00000000000;2429.00000000000;2426.00000000000;2404.00000000000;2400.00000000000;2400.00000000000;2475.00000000000;2503.00000000000;2528.00000000000;2551.00000000000;2505.00000000000;2445.00000000000;2375.00000000000;2336.00000000000;2231.00000000000;2127.00000000000;2043.00000000000;1912.00000000000;1820.00000000000;1714.00000000000;1607.00000000000;1503.00000000000;1386.00000000000;1271.00000000000;1139.00000000000;1005.00000000000;885.000000000000;766.000000000000;652.000000000000;480.000000000000;342.000000000000;219.000000000000;126.000000000000;43.0000000000000;34.0000000000000;37.0000000000000;80.0000000000000;74.0000000000000;153.000000000000;191.000000000000;254.000000000000;295.000000000000;398.000000000000;445.000000000000;499.000000000000;568.000000000000;616.000000000000;681.000000000000;755.000000000000;752.000000000000;844.000000000000;816.000000000000;902.000000000000;982.000000000000;1021.00000000000;1049.00000000000;1105.00000000000;1179.00000000000;1232.00000000000;1268.00000000000;1343.00000000000;1462.00000000000;1579.00000000000;1713.00000000000;1747.00000000000;1863.00000000000;2023.00000000000;2083.00000000000;2213.00000000000;2283.00000000000;2388.00000000000;2331.00000000000;2273.00000000000;2288.00000000000;2287.00000000000;2410.00000000000;2525.00000000000;2519.00000000000;2535.00000000000;2638.00000000000;2621.00000000000;2584.00000000000;2635.00000000000;2656.00000000000;2662.00000000000;2669.00000000000;2646.00000000000;2661.00000000000;2685.00000000000;2684.00000000000;2640.00000000000;2663.00000000000;2684.00000000000;2679.00000000000;2659.00000000000;2637.00000000000;2655.00000000000;2643.00000000000;2630.00000000000;2639.00000000000;2640.00000000000;2632.00000000000;2626.00000000000;2600.00000000000;2626.00000000000;2638.00000000000;2667.00000000000;2650.00000000000;2621.00000000000;2643.00000000000
Gyro X : 1754.00000000000;1790.00000000000;1802.00000000000;1792.00000000000;1779.00000000000;1777.00000000000;1778.00000000000;1783.00000000000;1772.00000000000;1745.00000000000;1771.00000000000;1760.00000000000;1771.00000000000;1779.00000000000;1788.00000000000;1752.00000000000;1757.00000000000;1779.00000000000;1783.00000000000;1781.00000000000;1781.00000000000;1807.00000000000;1783.00000000000;1787.00000000000;1744.00000000000;1767.00000000000;1787.00000000000;1788.00000000000;1804.00000000000;1805.00000000000;1770.00000000000;1768.00000000000;1753.00000000000;1719.00000000000;1674.00000000000;1738.00000000000;1925.00000000000;1840.00000000000;1693.00000000000;1913.00000000000;2330.00000000000;2480.00000000000;2494.00000000000;2584.00000000000;2676.00000000000;2766.00000000000;2751.00000000000;2865.00000000000;2947.00000000000;2983.00000000000;3007.00000000000;3132.00000000000;3135.00000000000;3256.00000000000;3246.00000000000;3252.00000000000;3132.00000000000;3127.00000000000;3109.00000000000;3109.00000000000;3028.00000000000;2980.00000000000;2857.00000000000;2684.00000000000;2537.00000000000;2510.00000000000;2562.00000000000;2622.00000000000;2575.00000000000;2423.00000000000;2304.00000000000;2228.00000000000;2279.00000000000;2293.00000000000;2300.00000000000;2430.00000000000;2432.00000000000;2424.00000000000;2531.00000000000;2543.00000000000;2587.00000000000;2598.00000000000;2648.00000000000;2636.00000000000;2652.00000000000;2704.00000000000;2753.00000000000;2735.00000000000;2850.00000000000;2787.00000000000;2795.00000000000;2768.00000000000;2817.00000000000;2888.00000000000;2893.00000000000;2909.00000000000;2886.00000000000;2907.00000000000;2896.00000000000;2933.00000000000;2977.00000000000;2934.00000000000;2913.00000000000;2832.00000000000;2783.00000000000;2940.00000000000;3017.00000000000;2796.00000000000;2732.00000000000;2664.00000000000;2719.00000000000;2589.00000000000;2209.00000000000;1837.00000000000;1521.00000000000;1328.00000000000;1267.00000000000;1162.00000000000;1026.00000000000;1173.00000000000;1207.00000000000;1150.00000000000;1273.00000000000;1358.00000000000;1414.00000000000;1417.00000000000;1388.00000000000;1421.00000000000;1547.00000000000;1515.00000000000;1545.00000000000;1595.00000000000;1665.00000000000;1718.00000000000;1716.00000000000;1651.00000000000;1648.00000000000;1674.00000000000;1687.00000000000;1717.00000000000;1735.00000000000;1666.00000000000;1652.00000000000;1661.00000000000;1662.00000000000;1682.00000000000;1695.00000000000;1681.00000000000;1631.00000000000;1686.00000000000
Gyro Y : 2015.00000000000;2005.00000000000;2011.00000000000;2019.00000000000;2031.00000000000;2021.00000000000;2006.00000000000;2018.00000000000;2025.00000000000;2017.00000000000;2009.00000000000;2039.00000000000;2027.00000000000;2004.00000000000;2018.00000000000;2017.00000000000;2024.00000000000;2020.00000000000;2011.00000000000;2029.00000000000;2033.00000000000;2012.00000000000;2027.00000000000;2013.00000000000;2017.00000000000;2014.00000000000;2028.00000000000;2026.00000000000;2026.00000000000;2019.00000000000;2020.00000000000;2027.00000000000;2025.00000000000;2031.00000000000;2025.00000000000;2004.00000000000;2037.00000000000;2015.00000000000;2044.00000000000;2055.00000000000;2053.00000000000;2077.00000000000;2054.00000000000;2063.00000000000;2122.00000000000;2136.00000000000;2116.00000000000;2151.00000000000;2199.00000000000;2249.00000000000;2295.00000000000;2347.00000000000;2368.00000000000;2442.00000000000;2499.00000000000;2589.00000000000;2703.00000000000;2794.00000000000;2811.00000000000;2896.00000000000;2965.00000000000;2990.00000000000;3064.00000000000;3089.00000000000;3058.00000000000;3015.00000000000;2980.00000000000;2871.00000000000;2792.00000000000;2654.00000000000;2578.00000000000;2504.00000000000;2361.00000000000;2181.00000000000;2107.00000000000;2085.00000000000;1995.00000000000;2002.00000000000;1996.00000000000;2014.00000000000;2078.00000000000;2064.00000000000;2073.00000000000;2125.00000000000;2152.00000000000;2231.00000000000;2242.00000000000;2273.00000000000;2320.00000000000;2324.00000000000;2342.00000000000;2341.00000000000;2424.00000000000;2461.00000000000;2443.00000000000;2458.00000000000;2478.00000000000;2483.00000000000;2447.00000000000;2505.00000000000;2473.00000000000;2506.00000000000;2499.00000000000;2501.00000000000;2437.00000000000;2446.00000000000;2410.00000000000;2371.00000000000;2305.00000000000;2231.00000000000;2325.00000000000;2232.00000000000;2104.00000000000;2117.00000000000;2199.00000000000;2250.00000000000;2196.00000000000;2211.00000000000;2108.00000000000;2098.00000000000;2117.00000000000;2064.00000000000;2050.00000000000;2062.00000000000;2028.00000000000;2049.00000000000;2014.00000000000;2039.00000000000;2042.00000000000;2020.00000000000;2001.00000000000;2024.00000000000;2021.00000000000;2004.00000000000;2026.00000000000;2001.00000000000;1991.00000000000;2004.00000000000;1989.00000000000;1990.00000000000;2008.00000000000;2006.00000000000;1996.00000000000;2006.00000000000;1998.00000000000;2006.00000000000;2001.00000000000;2006.00000000000;2015.00000000000;2031.00000000000
Gyro Z : 2651.00000000000;2653.00000000000;2653.00000000000;2654.00000000000;2648.00000000000;2658.00000000000;2668.00000000000;2650.00000000000;2644.00000000000;2655.00000000000;2657.00000000000;2667.00000000000;2654.00000000000;2658.00000000000;2660.00000000000;2663.00000000000;2664.00000000000;2682.00000000000;2652.00000000000;2666.00000000000;2676.00000000000;2646.00000000000;2663.00000000000;2655.00000000000;2658.00000000000;2681.00000000000;2672.00000000000;2685.00000000000;2667.00000000000;2661.00000000000;2668.00000000000;2653.00000000000;2671.00000000000;2657.00000000000;2653.00000000000;2635.00000000000;2623.00000000000;2640.00000000000;2565.00000000000;2429.00000000000;2366.00000000000;2429.00000000000;2426.00000000000;2404.00000000000;2400.00000000000;2400.00000000000;2475.00000000000;2503.00000000000;2528.00000000000;2551.00000000000;2505.00000000000;2445.00000000000;2375.00000000000;2336.00000000000;2231.00000000000;2127.00000000000;2043.00000000000;1912.00000000000;1820.00000000000;1714.00000000000;1607.00000000000;1503.00000000000;1386.00000000000;1271.00000000000;1139.00000000000;1005.00000000000;885.000000000000;766.000000000000;652.000000000000;480.000000000000;342.000000000000;219.000000000000;126.000000000000;43.0000000000000;34.0000000000000;37.0000000000000;80.0000000000000;74.0000000000000;153.000000000000;191.000000000000;254.000000000000;295.000000000000;398.000000000000;445.000000000000;499.000000000000;568.000000000000;616.000000000000;681.000000000000;755.000000000000;752.000000000000;844.000000000000;816.000000000000;902.000000000000;982.000000000000;1021.00000000000;1049.00000000000;1105.00000000000;1179.00000000000;1232.00000000000;1268.00000000000;1343.00000000000;1462.00000000000;1579.00000000000;1713.00000000000;1747.00000000000;1863.00000000000;2023.00000000000;2083.00000000000;2213.00000000000;2283.00000000000;2388.00000000000;2331.00000000000;2273.00000000000;2288.00000000000;2287.00000000000;2410.00000000000;2525.00000000000;2519.00000000000;2535.00000000000;2638.00000000000;2621.00000000000;2584.00000000000;2635.00000000000;2656.00000000000;2662.00000000000;2669.00000000000;2646.00000000000;2661.00000000000;2685.00000000000;2684.00000000000;2640.00000000000;2663.00000000000;2684.00000000000;2679.00000000000;2659.00000000000;2637.00000000000;2655.00000000000;2643.00000000000;2630.00000000000;2639.00000000000;2640.00000000000;2632.00000000000;2626.00000000000;2600.00000000000;2626.00000000000;2638.00000000000;2667.00000000000;2650.00000000000;2621.00000000000;2643.00000000000
