COMMAND 1 SAMPLE 1
Accel X : 1758.00000000000;1740.00000000000;1767.00000000000;1756.00000000000;1777.00000000000;1758.00000000000;1775.00000000000;1766.00000000000;1749.00000000000;1739.00000000000;1747.00000000000;1763.00000000000;1773.00000000000;1750.00000000000;1765.00000000000;1749.00000000000;1752.00000000000;1770.00000000000;1765.00000000000;1761.00000000000;1766.00000000000;1766.00000000000;1744.00000000000;1735.00000000000;1739.00000000000;1727.00000000000;1726.00000000000;1701.00000000000;1710.00000000000;1686.00000000000;1670.00000000000;1719.00000000000;1711.00000000000;1719.00000000000;1764.00000000000;1899.00000000000;2086.00000000000;2254.00000000000;2359.00000000000;2683.00000000000;2962.00000000000;3090.00000000000;3235.00000000000;3310.00000000000;3220.00000000000;3074.00000000000;2886.00000000000;2652.00000000000;2387.00000000000;2193.00000000000;2080.00000000000;1945.00000000000;1791.00000000000;1703.00000000000;1683.00000000000;1603.00000000000;1432.00000000000;1200.00000000000;918.000000000000;582.000000000000;165.000000000000;20.0000000000000;18.0000000000000;20.0000000000000;20.0000000000000;24.0000000000000;630.000000000000;843.000000000000;864.000000000000;923.000000000000;1052.00000000000;1081.00000000000;1304.00000000000;1565.00000000000;1840.00000000000;1989.00000000000;1997.00000000000;2124.00000000000;2095.00000000000;2127.00000000000;2262.00000000000;2437.00000000000;2575.00000000000;2655.00000000000;2875.00000000000;3042.00000000000;2976.00000000000;2973.00000000000;2995.00000000000;2923.00000000000;3093.00000000000;3352.00000000000;3483.00000000000;3474.00000000000;3339.00000000000;3344.00000000000;3353.00000000000;3342.00000000000;3322.00000000000;3462.00000000000;3431.00000000000;3273.00000000000;3087.00000000000;2889.00000000000;2673.00000000000;2364.00000000000;2037.00000000000;1815.00000000000;1782.00000000000;1822.00000000000;1729.00000000000;1437.00000000000;1557.00000000000;1780.00000000000;1709.00000000000;1730.00000000000;1800.00000000000;1764.00000000000;1734.00000000000;1769.00000000000;1728.00000000000;1739.00000000000;1796.00000000000;1844.00000000000;1830.00000000000;1786.00000000000;1790.00000000000;1787.00000000000;1810.00000000000;1840.00000000000;1810.00000000000;1804.00000000000;1783.00000000000;1814.00000000000;1791.00000000000;1802.00000000000;1798.00000000000;1782.00000000000;1797.00000000000;1783.00000000000;1767.00000000000;1794.00000000000;1799.00000000000;1784.00000000000;1783.00000000000;1806.00000000000;1762.00000000000;1793.00000000000;1805.00000000000;1803.00000000000
Accel Y : 2060.00000000000;2104.00000000000;2094.00000000000;2096.00000000000;2095.00000000000;2104.00000000000;2087.00000000000;2087.00000000000;2134.00000000000;2104.00000000000;2104.00000000000;2102.00000000000;2101.00000000000;2107.00000000000;2121.00000000000;2108.00000000000;2129.00000000000;2113.00000000000;2136.00000000000;2110.00000000000;2102.00000000000;2096.00000000000;2093.00000000000;2122.00000000000;2125.00000000000;2102.00000000000;2119.00000000000;2114.00000000000;2122.00000000000;2122.00000000000;2121.00000000000;2156.00000000000;2166.00000000000;2187.00000000000;2179.00000000000;2151.00000000000;2127.00000000000;2144.00000000000;2108.00000000000;2041.00000000000;2004.00000000000;1973.00000000000;1910.00000000000;1990.00000000000;1983.00000000000;1951.00000000000;1930.00000000000;1974.00000000000;1955.00000000000;1883.00000000000;1886.00000000000;1893.00000000000;1828.00000000000;1802.00000000000;1857.00000000000;1924.00000000000;1965.00000000000;1963.00000000000;1984.00000000000;2038.00000000000;2086.00000000000;2094.00000000000;2217.00000000000;2305.00000000000;1914.00000000000;1922.00000000000;1768.00000000000;1679.00000000000;1651.00000000000;1649.00000000000;1588.00000000000;1601.00000000000;1613.00000000000;1649.00000000000;1686.00000000000;1672.00000000000;1680.00000000000;1674.00000000000;1706.00000000000;1861.00000000000;1955.00000000000;1913.00000000000;1964.00000000000;2045.00000000000;2172.00000000000;2133.00000000000;2057.00000000000;1988.00000000000;1940.00000000000;1935.00000000000;1919.00000000000;1886.00000000000;1893.00000000000;1903.00000000000;1946.00000000000;1951.00000000000;1930.00000000000;1976.00000000000;1937.00000000000;1968.00000000000;1973.00000000000;1961.00000000000;1947.00000000000;1983.00000000000;2046.00000000000;2007.00000000000;2003.00000000000;2008.00000000000;2031.00000000000;2056.00000000000;2059.00000000000;2045.00000000000;2092.00000000000;2075.00000000000;2038.00000000000;2061.00000000000;2071.00000000000;2075.00000000000;2092.00000000000;2105.00000000000;2082.00000000000;2074.00000000000;2092.00000000000;2101.00000000000;2064.00000000000;2074.00000000000;2081.00000000000;2103.00000000000;2088.00000000000;2087.00000000000;2096.00000000000;2077.00000000000;2092.00000000000;2081.00000000000;2092.00000000000;2072.00000000000;2103.00000000000;2087.00000000000;2064.00000000000;2101.00000000000;2081.00000000000;2069.00000000000;2098.00000000000;2075.00000000000;2072.00000000000;2094.00000000000;2090.00000000000;2080.00000000000;2094.00000000000;2085.00000000000
Accel Z : 2631.00000000000;2638.00000000000;2631.00000000000;2640.00000000000;2658.00000000000;2637.00000000000;2635.00000000000;2632.00000000000;2649.00000000000;2639.00000000000;2637.00000000000;2628.00000000000;2661.00000000000;2656.00000000000;2662.00000000000;2663.00000000000;2659.00000000000;2654.00000000000;2655.00000000000;2675.00000000000;2664.00000000000;2670.00000000000;2640.00000000000;2677.00000000000;2657.00000000000;2665.00000000000;2681.00000000000;2702.00000000000;2712.00000000000;2735.00000000000;2736.00000000000;2797.00000000000;2862.00000000000;2924.00000000000;2933.00000000000;3000.00000000000;3016.00000000000;2982.00000000000;2879.00000000000;2741.00000000000;2576.00000000000;2468.00000000000;2323.00000000000;2222.00000000000;2091.00000000000;1982.00000000000;1910.00000000000;1900.00000000000;1828.00000000000;1754.00000000000;1704.00000000000;1684.00000000000;1615.00000000000;1557.00000000000;1579.00000000000;1625.00000000000;1614.00000000000;1598.00000000000;1677.00000000000;1801.00000000000;2115.00000000000;2647.00000000000;2718.00000000000;2268.00000000000;2268.00000000000;2121.00000000000;2106.00000000000;2025.00000000000;2047.00000000000;1964.00000000000;1845.00000000000;1695.00000000000;1647.00000000000;1710.00000000000;1785.00000000000;1764.00000000000;1575.00000000000;1540.00000000000;1583.00000000000;1705.00000000000;1555.00000000000;1489.00000000000;1440.00000000000;1509.00000000000;1736.00000000000;1747.00000000000;1583.00000000000;1609.00000000000;1803.00000000000;1900.00000000000;1868.00000000000;1839.00000000000;1856.00000000000;1842.00000000000;1858.00000000000;1802.00000000000;1804.00000000000;1774.00000000000;1762.00000000000;1798.00000000000;1816.00000000000;1807.00000000000;1865.00000000000;1943.00000000000;2030.00000000000;2153.00000000000;2245.00000000000;2263.00000000000;2425.00000000000;2512.00000000000;2561.00000000000;2533.00000000000;2629.00000000000;2635.00000000000;2667.00000000000;2703.00000000000;2709.00000000000;2696.00000000000;2698.00000000000;2718.00000000000;2710.00000000000;2694.00000000000;2709.00000000000;2693.00000000000;2686.00000000000;2686.00000000000;2667.00000000000;2647.00000000000;2647.00000000000;2637.00000000000;2641.00000000000;2635.00000000000;2643.00000000000;2660.00000000000;2661.00000000000;2657.00000000000;2640.00000000000;2659.00000000000;2676.00000000000;2673.00000000000;2659.00000000000;2670.00000000000;2670.00000000000;2676.00000000000;2677.00000000000;2682.00000000000;2667.00000000000;2656.00000000000;2676.00000000000;2649.00000000000
Gyro X : 1758.00000000000;1740.00000000000;1767.00000000000;1756.00000000000;1777.00000000000;1758.00000000000;1775.00000000000;1766.00000000000;1749.00000000000;1739.00000000000;1747.00000000000;1763.00000000000;1773.00000000000;1750.00000000000;1765.00000000000;1749.00000000000;1752.00000000000;1770.00000000000;1765.00000000000;1761.00000000000;1766.00000000000;1766.00000000000;1744.00000000000;1735.00000000000;1739.00000000000;1727.00000000000;1726.00000000000;1701.00000000000;1710.00000000000;1686.00000000000;1670.00000000000;1719.00000000000;1711.00000000000;1719.00000000000;1764.00000000000;1899.00000000000;2086.00000000000;2254.00000000000;2359.00000000000;2683.00000000000;2962.00000000000;3090.00000000000;3235.00000000000;3310.00000000000;3220.00000000000;3074.00000000000;2886.00000000000;2652.00000000000;2387.00000000000;2193.00000000000;2080.00000000000;1945.00000000000;1791.00000000000;1703.00000000000;1683.00000000000;1603.00000000000;1432.00000000000;1200.00000000000;918.000000000000;582.000000000000;165.000000000000;20.0000000000000;18.0000000000000;20.0000000000000;20.0000000000000;24.0000000000000;630.000000000000;843.000000000000;864.000000000000;923.000000000000;1052.00000000000;1081.00000000000;1304.00000000000;1565.00000000000;1840.00000000000;1989.00000000000;1997.00000000000;2124.00000000000;2095.00000000000;2127.00000000000;2262.00000000000;2437.00000000000;2575.00000000000;2655.00000000000;2875.00000000000;3042.00000000000;2976.00000000000;2973.00000000000;2995.00000000000;2923.00000000000;3093.00000000000;3352.00000000000;3483.00000000000;3474.00000000000;3339.00000000000;3344.00000000000;3353.00000000000;3342.00000000000;3322.00000000000;3462.00000000000;3431.00000000000;3273.00000000000;3087.00000000000;2889.00000000000;2673.00000000000;2364.00000000000;2037.00000000000;1815.00000000000;1782.00000000000;1822.00000000000;1729.00000000000;1437.00000000000;1557.00000000000;1780.00000000000;1709.00000000000;1730.00000000000;1800.00000000000;1764.00000000000;1734.00000000000;1769.00000000000;1728.00000000000;1739.00000000000;1796.00000000000;1844.00000000000;1830.00000000000;1786.00000000000;1790.00000000000;1787.00000000000;1810.00000000000;1840.00000000000;1810.00000000000;1804.00000000000;1783.00000000000;1814.00000000000;1791.00000000000;1802.00000000000;1798.00000000000;1782.00000000000;1797.00000000000;1783.00000000000;1767.00000000000;1794.00000000000;1799.00000000000;1784.00000000000;1783.00000000000;1806.00000000000;1762.00000000000;1793.00000000000;1805.00000000000;1803.00000000000
Gyro Y : 2060.00000000000;2104.00000000000;2094.00000000000;2096.00000000000;2095.00000000000;2104.00000000000;2087.00000000000;2087.00000000000;2134.00000000000;2104.00000000000;2104.00000000000;2102.00000000000;2101.00000000000;2107.00000000000;2121.00000000000;2108.00000000000;2129.00000000000;2113.00000000000;2136.00000000000;2110.00000000000;2102.00000000000;2096.00000000000;2093.00000000000;2122.00000000000;2125.00000000000;2102.00000000000;2119.00000000000;2114.00000000000;2122.00000000000;2122.00000000000;2121.00000000000;2156.00000000000;2166.00000000000;2187.00000000000;2179.00000000000;2151.00000000000;2127.00000000000;2144.00000000000;2108.00000000000;2041.00000000000;2004.00000000000;1973.00000000000;1910.00000000000;1990.00000000000;1983.00000000000;1951.00000000000;1930.00000000000;1974.00000000000;1955.00000000000;1883.00000000000;1886.00000000000;1893.00000000000;1828.00000000000;1802.00000000000;1857.00000000000;1924.00000000000;1965.00000000000;1963.00000000000;1984.00000000000;2038.00000000000;2086.00000000000;2094.00000000000;2217.00000000000;2305.00000000000;1914.00000000000;1922.00000000000;1768.00000000000;1679.00000000000;1651.00000000000;1649.00000000000;1588.00000000000;1601.00000000000;1613.00000000000;1649.00000000000;1686.00000000000;1672.00000000000;1680.00000000000;1674.00000000000;1706.00000000000;1861.00000000000;1955.00000000000;1913.00000000000;1964.00000000000;2045.00000000000;2172.00000000000;2133.00000000000;2057.00000000000;1988.00000000000;1940.00000000000;1935.00000000000;1919.00000000000;1886.00000000000;1893.00000000000;1903.00000000000;1946.00000000000;1951.00000000000;1930.00000000000;1976.00000000000;1937.00000000000;1968.00000000000;1973.00000000000;1961.00000000000;1947.00000000000;1983.00000000000;2046.00000000000;2007.00000000000;2003.00000000000;2008.00000000000;2031.00000000000;2056.00000000000;2059.00000000000;2045.00000000000;2092.00000000000;2075.00000000000;2038.00000000000;2061.00000000000;2071.00000000000;2075.00000000000;2092.00000000000;2105.00000000000;2082.00000000000;2074.00000000000;2092.00000000000;2101.00000000000;2064.00000000000;2074.00000000000;2081.00000000000;2103.00000000000;2088.00000000000;2087.00000000000;2096.00000000000;2077.00000000000;2092.00000000000;2081.00000000000;2092.00000000000;2072.00000000000;2103.00000000000;2087.00000000000;2064.00000000000;2101.00000000000;2081.00000000000;2069.00000000000;2098.00000000000;2075.00000000000;2072.00000000000;2094.00000000000;2090.00000000000;2080.00000000000;2094.00000000000;2085.00000000000
Gyro Z : 2631.00000000000;2638.00000000000;2631.00000000000;2640.00000000000;2658.00000000000;2637.00000000000;2635.00000000000;2632.00000000000;2649.00000000000;2639.00000000000;2637.00000000000;2628.00000000000;2661.00000000000;2656.00000000000;2662.00000000000;2663.00000000000;2659.00000000000;2654.00000000000;2655.00000000000;2675.00000000000;2664.00000000000;2670.00000000000;2640.00000000000;2677.00000000000;2657.00000000000;2665.00000000000;2681.00000000000;2702.00000000000;2712.00000000000;2735.00000000000;2736.00000000000;2797.00000000000;2862.00000000000;2924.00000000000;2933.00000000000;3000.00000000000;3016.00000000000;2982.00000000000;2879.00000000000;2741.00000000000;2576.00000000000;2468.00000000000;2323.00000000000;2222.00000000000;2091.00000000000;1982.00000000000;1910.00000000000;1900.00000000000;1828.00000000000;1754.00000000000;1704.00000000000;1684.00000000000;1615.00000000000;1557.00000000000;1579.00000000000;1625.00000000000;1614.00000000000;1598.00000000000;1677.00000000000;1801.00000000000;2115.00000000000;2647.00000000000;2718.00000000000;2268.00000000000;2268.00000000000;2121.00000000000;2106.00000000000;2025.00000000000;2047.00000000000;1964.00000000000;1845.00000000000;1695.00000000000;1647.00000000000;1710.00000000000;1785.00000000000;1764.00000000000;1575.00000000000;1540.00000000000;1583.00000000000;1705.00000000000;1555.00000000000;1489.00000000000;1440.00000000000;1509.00000000000;1736.00000000000;1747.00000000000;1583.00000000000;1609.00000000000;1803.00000000000;1900.00000000000;1868.00000000000;1839.00000000000;1856.00000000000;1842.00000000000;1858.00000000000;1802.00000000000;1804.00000000000;1774.00000000000;1762.00000000000;1798.00000000000;1816.00000000000;1807.00000000000;1865.00000000000;1943.00000000000;2030.00000000000;2153.00000000000;2245.00000000000;2263.00000000000;2425.00000000000;2512.00000000000;2561.00000000000;2533.00000000000;2629.00000000000;2635.00000000000;2667.00000000000;2703.00000000000;2709.00000000000;2696.00000000000;2698.00000000000;2718.00000000000;2710.00000000000;2694.00000000000;2709.00000000000;2693.00000000000;2686.00000000000;2686.00000000000;2667.00000000000;2647.00000000000;2647.00000000000;2637.00000000000;2641.00000000000;2635.00000000000;2643.00000000000;2660.00000000000;2661.00000000000;2657.00000000000;2640.00000000000;2659.00000000000;2676.00000000000;2673.00000000000;2659.00000000000;2670.00000000000;2670.00000000000;2676.00000000000;2677.00000000000;2682.00000000000;2667.00000000000;2656.00000000000;2676.00000000000;2649.00000000000
