COMMAND 1 SAMPLE 1
Accel X : 1922.00000000000;1944.00000000000;1943.00000000000;1916.00000000000;1877.00000000000;1907.00000000000;1924.00000000000;1924.00000000000;1950.00000000000;1949.00000000000;1965.00000000000;1981.00000000000;1979.00000000000;1989.00000000000;2007.00000000000;2017.00000000000;1986.00000000000;1966.00000000000;1982.00000000000;1997.00000000000;2000.00000000000;1979.00000000000;2009.00000000000;1994.00000000000;1980.00000000000;1991.00000000000;1962.00000000000;1991.00000000000;1992.00000000000;1973.00000000000;1971.00000000000;1955.00000000000;1962.00000000000;1962.00000000000;1971.00000000000;1961.00000000000;1919.00000000000;1959.00000000000;1956.00000000000;1991.00000000000;2028.00000000000;2043.00000000000;2037.00000000000;2007.00000000000;2124.00000000000;2335.00000000000;2496.00000000000;2553.00000000000;2583.00000000000;2624.00000000000;2637.00000000000;2719.00000000000;2813.00000000000;2723.00000000000;2596.00000000000;2409.00000000000;2279.00000000000;2296.00000000000;2231.00000000000;2154.00000000000;2008.00000000000;1853.00000000000;1721.00000000000;1549.00000000000;1501.00000000000;1252.00000000000;1061.00000000000;908.000000000000;488.000000000000;19.0000000000000;20.0000000000000;21.0000000000000;21.0000000000000;207.000000000000;1014.00000000000;1278.00000000000;1150.00000000000;899.000000000000;860.000000000000;937.000000000000;1025.00000000000;1243.00000000000;1402.00000000000;1425.00000000000;1465.00000000000;1519.00000000000;1672.00000000000;1814.00000000000;2015.00000000000;2083.00000000000;1978.00000000000;2039.00000000000;2143.00000000000;2230.00000000000;2373.00000000000;2444.00000000000;2499.00000000000;2771.00000000000;3148.00000000000;3229.00000000000;3158.00000000000;3161.00000000000;3325.00000000000;3367.00000000000;3384.00000000000;3281.00000000000;3113.00000000000;3085.00000000000;3142.00000000000;3218.00000000000;3279.00000000000;3308.00000000000;3113.00000000000;2946.00000000000;2877.00000000000;2733.00000000000;2336.00000000000;1834.00000000000;1634.00000000000;1734.00000000000;1852.00000000000;1811.00000000000;1750.00000000000;1717.00000000000;1723.00000000000;1790.00000000000;1898.00000000000;1922.00000000000;1862.00000000000;1791.00000000000;1782.00000000000;1802.00000000000;1845.00000000000;1866.00000000000;1802.00000000000;1764.00000000000;1746.00000000000;1797.00000000000;1842.00000000000;1797.00000000000;1772.00000000000;1762.00000000000;1813.00000000000;1816.00000000000;1806.00000000000;1803.00000000000;1807.00000000000;1790.00000000000;1814.00000000000;1783.00000000000
Accel Y : 2132.00000000000;2120.00000000000;2143.00000000000;2123.00000000000;2134.00000000000;2126.00000000000;2131.00000000000;2136.00000000000;2135.00000000000;2152.00000000000;2150.00000000000;2161.00000000000;2150.00000000000;2140.00000000000;2149.00000000000;2167.00000000000;2165.00000000000;2154.00000000000;2162.00000000000;2159.00000000000;2153.00000000000;2148.00000000000;2139.00000000000;2163.00000000000;2150.00000000000;2158.00000000000;2139.00000000000;2134.00000000000;2156.00000000000;2162.00000000000;2146.00000000000;2145.00000000000;2129.00000000000;2139.00000000000;2139.00000000000;2148.00000000000;2154.00000000000;2138.00000000000;2139.00000000000;2135.00000000000;2174.00000000000;2151.00000000000;2188.00000000000;2178.00000000000;2139.00000000000;2153.00000000000;2129.00000000000;2088.00000000000;2108.00000000000;2102.00000000000;2037.00000000000;1985.00000000000;1961.00000000000;1989.00000000000;1933.00000000000;1875.00000000000;1914.00000000000;1877.00000000000;1855.00000000000;1979.00000000000;1996.00000000000;1961.00000000000;1963.00000000000;1962.00000000000;2012.00000000000;1994.00000000000;1909.00000000000;1966.00000000000;2074.00000000000;2041.00000000000;2057.00000000000;2015.00000000000;1900.00000000000;1912.00000000000;1694.00000000000;1566.00000000000;1478.00000000000;1479.00000000000;1526.00000000000;1485.00000000000;1436.00000000000;1491.00000000000;1461.00000000000;1437.00000000000;1466.00000000000;1427.00000000000;1459.00000000000;1504.00000000000;1521.00000000000;1459.00000000000;1522.00000000000;1627.00000000000;1681.00000000000;1712.00000000000;1757.00000000000;1830.00000000000;1894.00000000000;1916.00000000000;2031.00000000000;1895.00000000000;1899.00000000000;1886.00000000000;1858.00000000000;1823.00000000000;1806.00000000000;1807.00000000000;1812.00000000000;1804.00000000000;1829.00000000000;1840.00000000000;1871.00000000000;1860.00000000000;1886.00000000000;1904.00000000000;1935.00000000000;1974.00000000000;1997.00000000000;2025.00000000000;2113.00000000000;2147.00000000000;2106.00000000000;2104.00000000000;2143.00000000000;2126.00000000000;2153.00000000000;2140.00000000000;2145.00000000000;2121.00000000000;2099.00000000000;2109.00000000000;2125.00000000000;2140.00000000000;2150.00000000000;2148.00000000000;2119.00000000000;2147.00000000000;2133.00000000000;2147.00000000000;2130.00000000000;2153.00000000000;2127.00000000000;2135.00000000000;2160.00000000000;2146.00000000000;2146.00000000000;2143.00000000000;2148.00000000000;2134.00000000000;2170.00000000000;2137.00000000000
Accel Z : 2727.00000000000;2692.00000000000;2699.00000000000;2697.00000000000;2701.00000000000;2707.00000000000;2707.00000000000;2707.00000000000;2679.00000000000;2691.00000000000;2688.00000000000;2691.00000000000;2681.00000000000;2660.00000000000;2664.00000000000;2647.00000000000;2651.00000000000;2635.00000000000;2653.00000000000;2676.00000000000;2639.00000000000;2658.00000000000;2643.00000000000;2707.00000000000;2675.00000000000;2681.00000000000;2696.00000000000;2689.00000000000;2692.00000000000;2714.00000000000;2718.00000000000;2715.00000000000;2710.00000000000;2726.00000000000;2730.00000000000;2760.00000000000;2780.00000000000;2829.00000000000;2855.00000000000;2917.00000000000;2944.00000000000;3019.00000000000;3097.00000000000;3093.00000000000;3085.00000000000;3136.00000000000;3119.00000000000;3054.00000000000;3007.00000000000;2920.00000000000;2765.00000000000;2623.00000000000;2513.00000000000;2331.00000000000;2152.00000000000;2039.00000000000;1906.00000000000;1824.00000000000;1794.00000000000;1767.00000000000;1683.00000000000;1601.00000000000;1604.00000000000;1579.00000000000;1632.00000000000;1508.00000000000;1456.00000000000;1701.00000000000;2152.00000000000;2701.00000000000;2364.00000000000;1813.00000000000;1852.00000000000;2032.00000000000;2328.00000000000;2308.00000000000;2142.00000000000;1893.00000000000;1775.00000000000;1683.00000000000;1617.00000000000;1674.00000000000;1747.00000000000;1710.00000000000;1604.00000000000;1580.00000000000;1616.00000000000;1664.00000000000;1609.00000000000;1570.00000000000;1552.00000000000;1590.00000000000;1635.00000000000;1616.00000000000;1603.00000000000;1713.00000000000;1690.00000000000;1717.00000000000;1873.00000000000;1916.00000000000;1971.00000000000;1935.00000000000;1962.00000000000;1949.00000000000;1981.00000000000;1999.00000000000;1952.00000000000;1956.00000000000;1935.00000000000;1935.00000000000;1912.00000000000;2056.00000000000;2004.00000000000;2015.00000000000;2070.00000000000;2056.00000000000;2094.00000000000;2251.00000000000;2439.00000000000;2575.00000000000;2639.00000000000;2657.00000000000;2703.00000000000;2752.00000000000;2772.00000000000;2768.00000000000;2783.00000000000;2750.00000000000;2751.00000000000;2740.00000000000;2743.00000000000;2717.00000000000;2731.00000000000;2732.00000000000;2705.00000000000;2689.00000000000;2671.00000000000;2672.00000000000;2669.00000000000;2649.00000000000;2631.00000000000;2646.00000000000;2651.00000000000;2679.00000000000;2667.00000000000;2684.00000000000;2658.00000000000;2666.00000000000;2672.00000000000;2689.00000000000
Gyro X : 1922.00000000000;1944.00000000000;1943.00000000000;1916.00000000000;1877.00000000000;1907.00000000000;1924.00000000000;1924.00000000000;1950.00000000000;1949.00000000000;1965.00000000000;1981.00000000000;1979.00000000000;1989.00000000000;2007.00000000000;2017.00000000000;1986.00000000000;1966.00000000000;1982.00000000000;1997.00000000000;2000.00000000000;1979.00000000000;2009.00000000000;1994.00000000000;1980.00000000000;1991.00000000000;1962.00000000000;1991.00000000000;1992.00000000000;1973.00000000000;1971.00000000000;1955.00000000000;1962.00000000000;1962.00000000000;1971.00000000000;1961.00000000000;1919.00000000000;1959.00000000000;1956.00000000000;1991.00000000000;2028.00000000000;2043.00000000000;2037.00000000000;2007.00000000000;2124.00000000000;2335.00000000000;2496.00000000000;2553.00000000000;2583.00000000000;2624.00000000000;2637.00000000000;2719.00000000000;2813.00000000000;2723.00000000000;2596.00000000000;2409.00000000000;2279.00000000000;2296.00000000000;2231.00000000000;2154.00000000000;2008.00000000000;1853.00000000000;1721.00000000000;1549.00000000000;1501.00000000000;1252.00000000000;1061.00000000000;908.000000000000;488.000000000000;19.0000000000000;20.0000000000000;21.0000000000000;21.0000000000000;207.000000000000;1014.00000000000;1278.00000000000;1150.00000000000;899.000000000000;860.000000000000;937.000000000000;1025.00000000000;1243.00000000000;1402.00000000000;1425.00000000000;1465.00000000000;1519.00000000000;1672.00000000000;1814.00000000000;2015.00000000000;2083.00000000000;1978.00000000000;2039.00000000000;2143.00000000000;2230.00000000000;2373.00000000000;2444.00000000000;2499.00000000000;2771.00000000000;3148.00000000000;3229.00000000000;3158.00000000000;3161.00000000000;3325.00000000000;3367.00000000000;3384.00000000000;3281.00000000000;3113.00000000000;3085.00000000000;3142.00000000000;3218.00000000000;3279.00000000000;3308.00000000000;3113.00000000000;2946.00000000000;2877.00000000000;2733.00000000000;2336.00000000000;1834.00000000000;1634.00000000000;1734.00000000000;1852.00000000000;1811.00000000000;1750.00000000000;1717.00000000000;1723.00000000000;1790.00000000000;1898.00000000000;1922.00000000000;1862.00000000000;1791.00000000000;1782.00000000000;1802.00000000000;1845.00000000000;1866.00000000000;1802.00000000000;1764.00000000000;1746.00000000000;1797.00000000000;1842.00000000000;1797.00000000000;1772.00000000000;1762.00000000000;1813.00000000000;1816.00000000000;1806.00000000000;1803.00000000000;1807.00000000000;1790.00000000000;1814.00000000000;1783.00000000000
Gyro Y : 2132.00000000000;2120.00000000000;2143.00000000000;2123.00000000000;2134.00000000000;2126.00000000000;2131.00000000000;2136.00000000000;2135.00000000000;2152.00000000000;2150.00000000000;2161.00000000000;2150.00000000000;2140.00000000000;2149.00000000000;2167.00000000000;2165.00000000000;2154.00000000000;2162.00000000000;2159.00000000000;2153.00000000000;2148.00000000000;2139.00000000000;2163.00000000000;2150.00000000000;2158.00000000000;2139.00000000000;2134.00000000000;2156.00000000000;2162.00000000000;2146.00000000000;2145.00000000000;2129.00000000000;2139.00000000000;2139.00000000000;2148.00000000000;2154.00000000000;2138.00000000000;2139.00000000000;2135.00000000000;2174.00000000000;2151.00000000000;2188.00000000000;2178.00000000000;2139.00000000000;2153.00000000000;2129.00000000000;2088.00000000000;2108.00000000000;2102.00000000000;2037.00000000000;1985.00000000000;1961.00000000000;1989.00000000000;1933.00000000000;1875.00000000000;1914.00000000000;1877.00000000000;1855.00000000000;1979.00000000000;1996.00000000000;1961.00000000000;1963.00000000000;1962.00000000000;2012.00000000000;1994.00000000000;1909.00000000000;1966.00000000000;2074.00000000000;2041.00000000000;2057.00000000000;2015.00000000000;1900.00000000000;1912.00000000000;1694.00000000000;1566.00000000000;1478.00000000000;1479.00000000000;1526.00000000000;1485.00000000000;1436.00000000000;1491.00000000000;1461.00000000000;1437.00000000000;1466.00000000000;1427.00000000000;1459.00000000000;1504.00000000000;1521.00000000000;1459.00000000000;1522.00000000000;1627.00000000000;1681.00000000000;1712.00000000000;1757.00000000000;1830.00000000000;1894.00000000000;1916.00000000000;2031.00000000000;1895.00000000000;1899.00000000000;1886.00000000000;1858.00000000000;1823.00000000000;1806.00000000000;1807.00000000000;1812.00000000000;1804.00000000000;1829.00000000000;1840.00000000000;1871.00000000000;1860.00000000000;1886.00000000000;1904.00000000000;1935.00000000000;1974.00000000000;1997.00000000000;2025.00000000000;2113.00000000000;2147.00000000000;2106.00000000000;2104.00000000000;2143.00000000000;2126.00000000000;2153.00000000000;2140.00000000000;2145.00000000000;2121.00000000000;2099.00000000000;2109.00000000000;2125.00000000000;2140.00000000000;2150.00000000000;2148.00000000000;2119.00000000000;2147.00000000000;2133.00000000000;2147.00000000000;2130.00000000000;2153.00000000000;2127.00000000000;2135.00000000000;2160.00000000000;2146.00000000000;2146.00000000000;2143.00000000000;2148.00000000000;2134.00000000000;2170.00000000000;2137.00000000000
Gyro Z : 2727.00000000000;2692.00000000000;2699.00000000000;2697.00000000000;2701.00000000000;2707.00000000000;2707.00000000000;2707.00000000000;2679.00000000000;2691.00000000000;2688.00000000000;2691.00000000000;2681.00000000000;2660.00000000000;2664.00000000000;2647.00000000000;2651.00000000000;2635.00000000000;2653.00000000000;2676.00000000000;2639.00000000000;2658.00000000000;2643.00000000000;2707.00000000000;2675.00000000000;2681.00000000000;2696.00000000000;2689.00000000000;2692.00000000000;2714.00000000000;2718.00000000000;2715.00000000000;2710.00000000000;2726.00000000000;2730.00000000000;2760.00000000000;2780.00000000000;2829.00000000000;2855.00000000000;2917.00000000000;2944.00000000000;3019.00000000000;3097.00000000000;3093.00000000000;3085.00000000000;3136.00000000000;3119.00000000000;3054.00000000000;3007.00000000000;2920.00000000000;2765.00000000000;2623.00000000000;2513.00000000000;2331.00000000000;2152.00000000000;2039.00000000000;1906.00000000000;1824.00000000000;1794.00000000000;1767.00000000000;1683.00000000000;1601.00000000000;1604.00000000000;1579.00000000000;1632.00000000000;1508.00000000000;1456.00000000000;1701.00000000000;2152.00000000000;2701.00000000000;2364.00000000000;1813.00000000000;1852.00000000000;2032.00000000000;2328.00000000000;2308.00000000000;2142.00000000000;1893.00000000000;1775.00000000000;1683.00000000000;1617.00000000000;1674.00000000000;1747.00000000000;1710.00000000000;1604.00000000000;1580.00000000000;1616.00000000000;1664.00000000000;1609.00000000000;1570.00000000000;1552.00000000000;1590.00000000000;1635.00000000000;1616.00000000000;1603.00000000000;1713.00000000000;1690.00000000000;1717.00000000000;1873.00000000000;1916.00000000000;1971.00000000000;1935.00000000000;1962.00000000000;1949.00000000000;1981.00000000000;1999.00000000000;1952.00000000000;1956.00000000000;1935.00000000000;1935.00000000000;1912.00000000000;2056.00000000000;2004.00000000000;2015.00000000000;2070.00000000000;2056.00000000000;2094.00000000000;2251.00000000000;2439.00000000000;2575.00000000000;2639.00000000000;2657.00000000000;2703.00000000000;2752.00000000000;2772.00000000000;2768.00000000000;2783.00000000000;2750.00000000000;2751.00000000000;2740.00000000000;2743.00000000000;2717.00000000000;2731.00000000000;2732.00000000000;2705.00000000000;2689.00000000000;2671.00000000000;2672.00000000000;2669.00000000000;2649.00000000000;2631.00000000000;2646.00000000000;2651.00000000000;2679.00000000000;2667.00000000000;2684.00000000000;2658.00000000000;2666.00000000000;2672.00000000000;2689.00000000000
