COMMAND 1 SAMPLE 1
Accel X : 1869.00000000000;1874.00000000000;1855.00000000000;1887.00000000000;1843.00000000000;1854.00000000000;1860.00000000000;1852.00000000000;1862.00000000000;1845.00000000000;1854.00000000000;1870.00000000000;1877.00000000000;1871.00000000000;1871.00000000000;1867.00000000000;1885.00000000000;1862.00000000000;1856.00000000000;1837.00000000000;1840.00000000000;1866.00000000000;1854.00000000000;1850.00000000000;1858.00000000000;1847.00000000000;1835.00000000000;1849.00000000000;1866.00000000000;1864.00000000000;1830.00000000000;1837.00000000000;1848.00000000000;1844.00000000000;1859.00000000000;1867.00000000000;1854.00000000000;1839.00000000000;1842.00000000000;1833.00000000000;1852.00000000000;1855.00000000000;1846.00000000000;1831.00000000000;1806.00000000000;1860.00000000000;1936.00000000000;1966.00000000000;1982.00000000000;2015.00000000000;2064.00000000000;2133.00000000000;2157.00000000000;2186.00000000000;2156.00000000000;2183.00000000000;2189.00000000000;2133.00000000000;2155.00000000000;2021.00000000000;1930.00000000000;1944.00000000000;1929.00000000000;1936.00000000000;1969.00000000000;1942.00000000000;1931.00000000000;1883.00000000000;1829.00000000000;1730.00000000000;1586.00000000000;1417.00000000000;1185.00000000000;850.000000000000;542.000000000000;407.000000000000;601.000000000000;856.000000000000;724.000000000000;1057.00000000000;1252.00000000000;1303.00000000000;1263.00000000000;1388.00000000000;1517.00000000000;1596.00000000000;1647.00000000000;1765.00000000000;1836.00000000000;1902.00000000000;2006.00000000000;2045.00000000000;1950.00000000000;2046.00000000000;2020.00000000000;2011.00000000000;2124.00000000000;2283.00000000000;2381.00000000000;2140.00000000000;1914.00000000000;1670.00000000000;1850.00000000000;1813.00000000000;1865.00000000000;2135.00000000000;2083.00000000000;2023.00000000000;1997.00000000000;1937.00000000000;1975.00000000000;2017.00000000000;2080.00000000000;1993.00000000000;2017.00000000000;1990.00000000000;2035.00000000000;2041.00000000000;2034.00000000000;2017.00000000000;2020.00000000000;2015.00000000000;1989.00000000000;1972.00000000000;1966.00000000000;1997.00000000000;2008.00000000000;2009.00000000000;2023.00000000000;2000.00000000000;2009.00000000000;2008.00000000000;1974.00000000000;1990.00000000000;1996.00000000000;1981.00000000000;1977.00000000000;1970.00000000000;1979.00000000000;2003.00000000000;2028.00000000000;1983.00000000000;1972.00000000000;1988.00000000000;1985.00000000000;1972.00000000000;1975.00000000000;1972.00000000000;1991.00000000000;1996.00000000000
Accel Y : 2127.00000000000;2142.00000000000;2148.00000000000;2132.00000000000;2142.00000000000;2145.00000000000;2146.00000000000;2139.00000000000;2134.00000000000;2137.00000000000;2143.00000000000;2143.00000000000;2149.00000000000;2135.00000000000;2154.00000000000;2141.00000000000;2129.00000000000;2140.00000000000;2135.00000000000;2148.00000000000;2139.00000000000;2113.00000000000;2131.00000000000;2114.00000000000;2124.00000000000;2125.00000000000;2132.00000000000;2137.00000000000;2145.00000000000;2143.00000000000;2132.00000000000;2158.00000000000;2132.00000000000;2132.00000000000;2157.00000000000;2119.00000000000;2124.00000000000;2153.00000000000;2134.00000000000;2119.00000000000;2125.00000000000;2143.00000000000;2155.00000000000;2188.00000000000;2145.00000000000;2178.00000000000;2183.00000000000;2182.00000000000;2192.00000000000;2172.00000000000;2109.00000000000;2118.00000000000;2118.00000000000;2121.00000000000;2161.00000000000;2114.00000000000;2104.00000000000;2171.00000000000;2114.00000000000;2031.00000000000;1937.00000000000;1941.00000000000;1889.00000000000;1859.00000000000;1834.00000000000;1747.00000000000;1725.00000000000;1714.00000000000;1620.00000000000;1576.00000000000;1542.00000000000;1480.00000000000;1398.00000000000;1370.00000000000;1288.00000000000;1276.00000000000;1452.00000000000;1386.00000000000;1289.00000000000;1303.00000000000;1321.00000000000;1329.00000000000;1316.00000000000;1305.00000000000;1320.00000000000;1289.00000000000;1294.00000000000;1368.00000000000;1458.00000000000;1503.00000000000;1596.00000000000;1673.00000000000;1784.00000000000;1879.00000000000;1934.00000000000;2046.00000000000;2110.00000000000;2232.00000000000;2358.00000000000;2438.00000000000;2466.00000000000;2448.00000000000;2530.00000000000;2409.00000000000;2239.00000000000;2227.00000000000;2157.00000000000;2124.00000000000;2120.00000000000;2115.00000000000;2118.00000000000;2109.00000000000;2079.00000000000;2086.00000000000;2076.00000000000;2023.00000000000;2021.00000000000;1976.00000000000;2028.00000000000;2007.00000000000;1970.00000000000;1985.00000000000;1985.00000000000;2020.00000000000;1992.00000000000;2002.00000000000;1981.00000000000;1978.00000000000;1986.00000000000;1969.00000000000;1971.00000000000;1963.00000000000;1967.00000000000;1981.00000000000;1955.00000000000;1939.00000000000;1954.00000000000;1946.00000000000;1982.00000000000;1979.00000000000;1977.00000000000;2009.00000000000;1989.00000000000;2002.00000000000;1997.00000000000;1999.00000000000;1968.00000000000;2009.00000000000;1996.00000000000;1998.00000000000
Accel Z : 2693.00000000000;2681.00000000000;2697.00000000000;2681.00000000000;2686.00000000000;2682.00000000000;2685.00000000000;2711.00000000000;2683.00000000000;2686.00000000000;2674.00000000000;2662.00000000000;2670.00000000000;2667.00000000000;2666.00000000000;2677.00000000000;2662.00000000000;2669.00000000000;2665.00000000000;2662.00000000000;2678.00000000000;2667.00000000000;2677.00000000000;2684.00000000000;2681.00000000000;2678.00000000000;2680.00000000000;2660.00000000000;2675.00000000000;2669.00000000000;2689.00000000000;2687.00000000000;2676.00000000000;2706.00000000000;2691.00000000000;2710.00000000000;2705.00000000000;2718.00000000000;2759.00000000000;2792.00000000000;2830.00000000000;2849.00000000000;2926.00000000000;2973.00000000000;2983.00000000000;3060.00000000000;3114.00000000000;3104.00000000000;3124.00000000000;3075.00000000000;3032.00000000000;3014.00000000000;2947.00000000000;2910.00000000000;2847.00000000000;2714.00000000000;2616.00000000000;2476.00000000000;2356.00000000000;2165.00000000000;2029.00000000000;1860.00000000000;1706.00000000000;1610.00000000000;1471.00000000000;1324.00000000000;1211.00000000000;1015.00000000000;882.000000000000;785.000000000000;638.000000000000;490.000000000000;296.000000000000;147.000000000000;48.0000000000000;123.000000000000;533.000000000000;644.000000000000;493.000000000000;666.000000000000;717.000000000000;753.000000000000;706.000000000000;742.000000000000;889.000000000000;939.000000000000;956.000000000000;1055.00000000000;1184.00000000000;1340.00000000000;1402.00000000000;1472.00000000000;1587.00000000000;1743.00000000000;1820.00000000000;1887.00000000000;1999.00000000000;2108.00000000000;2371.00000000000;2379.00000000000;2515.00000000000;2735.00000000000;3012.00000000000;3278.00000000000;3347.00000000000;3385.00000000000;3347.00000000000;3289.00000000000;3164.00000000000;3088.00000000000;3032.00000000000;3015.00000000000;2965.00000000000;2857.00000000000;2787.00000000000;2735.00000000000;2704.00000000000;2671.00000000000;2632.00000000000;2595.00000000000;2609.00000000000;2614.00000000000;2623.00000000000;2660.00000000000;2626.00000000000;2620.00000000000;2661.00000000000;2626.00000000000;2686.00000000000;2680.00000000000;2679.00000000000;2675.00000000000;2670.00000000000;2637.00000000000;2677.00000000000;2652.00000000000;2691.00000000000;2662.00000000000;2655.00000000000;2660.00000000000;2670.00000000000;2634.00000000000;2660.00000000000;2642.00000000000;2664.00000000000;2645.00000000000;2663.00000000000;2671.00000000000;2652.00000000000;2691.00000000000
Gyro X : 1869.00000000000;1874.00000000000;1855.00000000000;1887.00000000000;1843.00000000000;1854.00000000000;1860.00000000000;1852.00000000000;1862.00000000000;1845.00000000000;1854.00000000000;1870.00000000000;1877.00000000000;1871.00000000000;1871.00000000000;1867.00000000000;1885.00000000000;1862.00000000000;1856.00000000000;1837.00000000000;1840.00000000000;1866.00000000000;1854.00000000000;1850.00000000000;1858.00000000000;1847.00000000000;1835.00000000000;1849.00000000000;1866.00000000000;1864.00000000000;1830.00000000000;1837.00000000000;1848.00000000000;1844.00000000000;1859.00000000000;1867.00000000000;1854.00000000000;1839.00000000000;1842.00000000000;1833.00000000000;1852.00000000000;1855.00000000000;1846.00000000000;1831.00000000000;1806.00000000000;1860.00000000000;1936.00000000000;1966.00000000000;1982.00000000000;2015.00000000000;2064.00000000000;2133.00000000000;2157.00000000000;2186.00000000000;2156.00000000000;2183.00000000000;2189.00000000000;2133.00000000000;2155.00000000000;2021.00000000000;1930.00000000000;1944.00000000000;1929.00000000000;1936.00000000000;1969.00000000000;1942.00000000000;1931.00000000000;1883.00000000000;1829.00000000000;1730.00000000000;1586.00000000000;1417.00000000000;1185.00000000000;850.000000000000;542.000000000000;407.000000000000;601.000000000000;856.000000000000;724.000000000000;1057.00000000000;1252.00000000000;1303.00000000000;1263.00000000000;1388.00000000000;1517.00000000000;1596.00000000000;1647.00000000000;1765.00000000000;1836.00000000000;1902.00000000000;2006.00000000000;2045.00000000000;1950.00000000000;2046.00000000000;2020.00000000000;2011.00000000000;2124.00000000000;2283.00000000000;2381.00000000000;2140.00000000000;1914.00000000000;1670.00000000000;1850.00000000000;1813.00000000000;1865.00000000000;2135.00000000000;2083.00000000000;2023.00000000000;1997.00000000000;1937.00000000000;1975.00000000000;2017.00000000000;2080.00000000000;1993.00000000000;2017.00000000000;1990.00000000000;2035.00000000000;2041.00000000000;2034.00000000000;2017.00000000000;2020.00000000000;2015.00000000000;1989.00000000000;1972.00000000000;1966.00000000000;1997.00000000000;2008.00000000000;2009.00000000000;2023.00000000000;2000.00000000000;2009.00000000000;2008.00000000000;1974.00000000000;1990.00000000000;1996.00000000000;1981.00000000000;1977.00000000000;1970.00000000000;1979.00000000000;2003.00000000000;2028.00000000000;1983.00000000000;1972.00000000000;1988.00000000000;1985.00000000000;1972.00000000000;1975.00000000000;1972.00000000000;1991.00000000000;1996.00000000000
Gyro Y : 2127.00000000000;2142.00000000000;2148.00000000000;2132.00000000000;2142.00000000000;2145.00000000000;2146.00000000000;2139.00000000000;2134.00000000000;2137.00000000000;2143.00000000000;2143.00000000000;2149.00000000000;2135.00000000000;2154.00000000000;2141.00000000000;2129.00000000000;2140.00000000000;2135.00000000000;2148.00000000000;2139.00000000000;2113.00000000000;2131.00000000000;2114.00000000000;2124.00000000000;2125.00000000000;2132.00000000000;2137.00000000000;2145.00000000000;2143.00000000000;2132.00000000000;2158.00000000000;2132.00000000000;2132.00000000000;2157.00000000000;2119.00000000000;2124.00000000000;2153.00000000000;2134.00000000000;2119.00000000000;2125.00000000000;2143.00000000000;2155.00000000000;2188.00000000000;2145.00000000000;2178.00000000000;2183.00000000000;2182.00000000000;2192.00000000000;2172.00000000000;2109.00000000000;2118.00000000000;2118.00000000000;2121.00000000000;2161.00000000000;2114.00000000000;2104.00000000000;2171.00000000000;2114.00000000000;2031.00000000000;1937.00000000000;1941.00000000000;1889.00000000000;1859.00000000000;1834.00000000000;1747.00000000000;1725.00000000000;1714.00000000000;1620.00000000000;1576.00000000000;1542.00000000000;1480.00000000000;1398.00000000000;1370.00000000000;1288.00000000000;1276.00000000000;1452.00000000000;1386.00000000000;1289.00000000000;1303.00000000000;1321.00000000000;1329.00000000000;1316.00000000000;1305.00000000000;1320.00000000000;1289.00000000000;1294.00000000000;1368.00000000000;1458.00000000000;1503.00000000000;1596.00000000000;1673.00000000000;1784.00000000000;1879.00000000000;1934.00000000000;2046.00000000000;2110.00000000000;2232.00000000000;2358.00000000000;2438.00000000000;2466.00000000000;2448.00000000000;2530.00000000000;2409.00000000000;2239.00000000000;2227.00000000000;2157.00000000000;2124.00000000000;2120.00000000000;2115.00000000000;2118.00000000000;2109.00000000000;2079.00000000000;2086.00000000000;2076.00000000000;2023.00000000000;2021.00000000000;1976.00000000000;2028.00000000000;2007.00000000000;1970.00000000000;1985.00000000000;1985.00000000000;2020.00000000000;1992.00000000000;2002.00000000000;1981.00000000000;1978.00000000000;1986.00000000000;1969.00000000000;1971.00000000000;1963.00000000000;1967.00000000000;1981.00000000000;1955.00000000000;1939.00000000000;1954.00000000000;1946.00000000000;1982.00000000000;1979.00000000000;1977.00000000000;2009.00000000000;1989.00000000000;2002.00000000000;1997.00000000000;1999.00000000000;1968.00000000000;2009.00000000000;1996.00000000000;1998.00000000000
Gyro Z : 2693.00000000000;2681.00000000000;2697.00000000000;2681.00000000000;2686.00000000000;2682.00000000000;2685.00000000000;2711.00000000000;2683.00000000000;2686.00000000000;2674.00000000000;2662.00000000000;2670.00000000000;2667.00000000000;2666.00000000000;2677.00000000000;2662.00000000000;2669.00000000000;2665.00000000000;2662.00000000000;2678.00000000000;2667.00000000000;2677.00000000000;2684.00000000000;2681.00000000000;2678.00000000000;2680.00000000000;2660.00000000000;2675.00000000000;2669.00000000000;2689.00000000000;2687.00000000000;2676.00000000000;2706.00000000000;2691.00000000000;2710.00000000000;2705.00000000000;2718.00000000000;2759.00000000000;2792.00000000000;2830.00000000000;2849.00000000000;2926.00000000000;2973.00000000000;2983.00000000000;3060.00000000000;3114.00000000000;3104.00000000000;3124.00000000000;3075.00000000000;3032.00000000000;3014.00000000000;2947.00000000000;2910.00000000000;2847.00000000000;2714.00000000000;2616.00000000000;2476.00000000000;2356.00000000000;2165.00000000000;2029.00000000000;1860.00000000000;1706.00000000000;1610.00000000000;1471.00000000000;1324.00000000000;1211.00000000000;1015.00000000000;882.000000000000;785.000000000000;638.000000000000;490.000000000000;296.000000000000;147.000000000000;48.0000000000000;123.000000000000;533.000000000000;644.000000000000;493.000000000000;666.000000000000;717.000000000000;753.000000000000;706.000000000000;742.000000000000;889.000000000000;939.000000000000;956.000000000000;1055.00000000000;1184.00000000000;1340.00000000000;1402.00000000000;1472.00000000000;1587.00000000000;1743.00000000000;1820.00000000000;1887.00000000000;1999.00000000000;2108.00000000000;2371.00000000000;2379.00000000000;2515.00000000000;2735.00000000000;3012.00000000000;3278.00000000000;3347.00000000000;3385.00000000000;3347.00000000000;3289.00000000000;3164.00000000000;3088.00000000000;3032.00000000000;3015.00000000000;2965.00000000000;2857.00000000000;2787.00000000000;2735.00000000000;2704.00000000000;2671.00000000000;2632.00000000000;2595.00000000000;2609.00000000000;2614.00000000000;2623.00000000000;2660.00000000000;2626.00000000000;2620.00000000000;2661.00000000000;2626.00000000000;2686.00000000000;2680.00000000000;2679.00000000000;2675.00000000000;2670.00000000000;2637.00000000000;2677.00000000000;2652.00000000000;2691.00000000000;2662.00000000000;2655.00000000000;2660.00000000000;2670.00000000000;2634.00000000000;2660.00000000000;2642.00000000000;2664.00000000000;2645.00000000000;2663.00000000000;2671.00000000000;2652.00000000000;2691.00000000000
COMMAND 1 SAMPLE 1
Accel X : 1875.00000000000;1862.00000000000;1850.00000000000;1857.00000000000;1863.00000000000;1875.00000000000;1866.00000000000;1853.00000000000;1879.00000000000;1867.00000000000;1873.00000000000;1895.00000000000;1866.00000000000;1864.00000000000;1848.00000000000;1864.00000000000;1867.00000000000;1875.00000000000;1868.00000000000;1874.00000000000;1865.00000000000;1905.00000000000;1867.00000000000;1883.00000000000;1848.00000000000;1856.00000000000;1841.00000000000;1872.00000000000;1875.00000000000;1849.00000000000;1856.00000000000;1862.00000000000;1852.00000000000;1854.00000000000;1859.00000000000;1834.00000000000;1825.00000000000;1808.00000000000;1840.00000000000;1840.00000000000;1844.00000000000;1810.00000000000;1795.00000000000;1802.00000000000;1858.00000000000;1956.00000000000;1982.00000000000;2000.00000000000;2004.00000000000;1998.00000000000;2048.00000000000;2062.00000000000;2069.00000000000;2079.00000000000;2063.00000000000;1999.00000000000;1966.00000000000;1929.00000000000;1852.00000000000;1863.00000000000;1861.00000000000;1877.00000000000;1884.00000000000;1885.00000000000;1893.00000000000;1831.00000000000;1758.00000000000;1726.00000000000;1680.00000000000;1555.00000000000;1458.00000000000;1365.00000000000;1178.00000000000;946.000000000000;767.000000000000;651.000000000000;692.000000000000;808.000000000000;831.000000000000;850.000000000000;959.000000000000;1120.00000000000;1145.00000000000;1212.00000000000;1254.00000000000;1335.00000000000;1398.00000000000;1470.00000000000;1652.00000000000;1851.00000000000;1885.00000000000;1953.00000000000;2081.00000000000;2208.00000000000;2165.00000000000;2081.00000000000;2043.00000000000;2228.00000000000;2238.00000000000;2227.00000000000;2128.00000000000;1790.00000000000;1464.00000000000;1528.00000000000;2048.00000000000;2392.00000000000;2299.00000000000;1986.00000000000;1722.00000000000;1733.00000000000;1966.00000000000;2102.00000000000;2026.00000000000;1951.00000000000;1911.00000000000;1908.00000000000;1980.00000000000;2023.00000000000;2072.00000000000;2058.00000000000;2041.00000000000;2010.00000000000;1995.00000000000;2001.00000000000;1966.00000000000;1921.00000000000;1941.00000000000;1962.00000000000;1979.00000000000;1991.00000000000;1953.00000000000;1929.00000000000;1916.00000000000;1943.00000000000;1958.00000000000;1943.00000000000;1937.00000000000;1948.00000000000;1921.00000000000;1933.00000000000;1947.00000000000;1940.00000000000;1963.00000000000;1953.00000000000;1913.00000000000;1962.00000000000;1945.00000000000;1944.00000000000;1967.00000000000;1932.00000000000
Accel Y : 2059.00000000000;2059.00000000000;2081.00000000000;2081.00000000000;2073.00000000000;2079.00000000000;2074.00000000000;2057.00000000000;2043.00000000000;2076.00000000000;2064.00000000000;2063.00000000000;2083.00000000000;2080.00000000000;2066.00000000000;2084.00000000000;2065.00000000000;2081.00000000000;2064.00000000000;2071.00000000000;2068.00000000000;2063.00000000000;2056.00000000000;2076.00000000000;2074.00000000000;2068.00000000000;2054.00000000000;2049.00000000000;2075.00000000000;2063.00000000000;2048.00000000000;2078.00000000000;2048.00000000000;2075.00000000000;2082.00000000000;2043.00000000000;2070.00000000000;2067.00000000000;2063.00000000000;2067.00000000000;2043.00000000000;2076.00000000000;2079.00000000000;2079.00000000000;2065.00000000000;2031.00000000000;2023.00000000000;2037.00000000000;2032.00000000000;1982.00000000000;1930.00000000000;1962.00000000000;1895.00000000000;1873.00000000000;1860.00000000000;1787.00000000000;1751.00000000000;1739.00000000000;1703.00000000000;1694.00000000000;1693.00000000000;1622.00000000000;1632.00000000000;1630.00000000000;1652.00000000000;1661.00000000000;1639.00000000000;1626.00000000000;1609.00000000000;1626.00000000000;1609.00000000000;1610.00000000000;1561.00000000000;1553.00000000000;1593.00000000000;1528.00000000000;1546.00000000000;1553.00000000000;1518.00000000000;1495.00000000000;1473.00000000000;1478.00000000000;1397.00000000000;1336.00000000000;1373.00000000000;1369.00000000000;1402.00000000000;1432.00000000000;1499.00000000000;1503.00000000000;1585.00000000000;1779.00000000000;1932.00000000000;1970.00000000000;2039.00000000000;2136.00000000000;2243.00000000000;2273.00000000000;2428.00000000000;2606.00000000000;2543.00000000000;2397.00000000000;2392.00000000000;2426.00000000000;2320.00000000000;2145.00000000000;2204.00000000000;2227.00000000000;2185.00000000000;2163.00000000000;2171.00000000000;2179.00000000000;2184.00000000000;2141.00000000000;2156.00000000000;2106.00000000000;2096.00000000000;2066.00000000000;2025.00000000000;2054.00000000000;2055.00000000000;2050.00000000000;2027.00000000000;2048.00000000000;2051.00000000000;2031.00000000000;2027.00000000000;2005.00000000000;1983.00000000000;1996.00000000000;1967.00000000000;1986.00000000000;1964.00000000000;1963.00000000000;1979.00000000000;1974.00000000000;1979.00000000000;1973.00000000000;1967.00000000000;1976.00000000000;1991.00000000000;1987.00000000000;2006.00000000000;1988.00000000000;2010.00000000000;1999.00000000000;1994.00000000000;2007.00000000000;1991.00000000000;2029.00000000000
Accel Z : 2664.00000000000;2682.00000000000;2672.00000000000;2666.00000000000;2685.00000000000;2693.00000000000;2663.00000000000;2697.00000000000;2676.00000000000;2650.00000000000;2662.00000000000;2690.00000000000;2674.00000000000;2692.00000000000;2688.00000000000;2683.00000000000;2674.00000000000;2674.00000000000;2683.00000000000;2680.00000000000;2690.00000000000;2679.00000000000;2672.00000000000;2676.00000000000;2691.00000000000;2671.00000000000;2686.00000000000;2670.00000000000;2687.00000000000;2694.00000000000;2685.00000000000;2685.00000000000;2707.00000000000;2722.00000000000;2745.00000000000;2792.00000000000;2800.00000000000;2814.00000000000;2845.00000000000;2886.00000000000;2923.00000000000;2984.00000000000;3018.00000000000;3018.00000000000;3015.00000000000;2994.00000000000;2985.00000000000;2960.00000000000;2942.00000000000;2874.00000000000;2814.00000000000;2741.00000000000;2661.00000000000;2588.00000000000;2511.00000000000;2365.00000000000;2286.00000000000;2156.00000000000;2019.00000000000;1942.00000000000;1799.00000000000;1703.00000000000;1592.00000000000;1458.00000000000;1374.00000000000;1286.00000000000;1089.00000000000;978.000000000000;848.000000000000;717.000000000000;588.000000000000;476.000000000000;428.000000000000;440.000000000000;394.000000000000;387.000000000000;545.000000000000;670.000000000000;652.000000000000;584.000000000000;623.000000000000;619.000000000000;616.000000000000;625.000000000000;556.000000000000;584.000000000000;666.000000000000;833.000000000000;991.000000000000;1142.00000000000;1215.00000000000;1385.00000000000;1518.00000000000;1598.00000000000;1737.00000000000;1812.00000000000;1867.00000000000;1948.00000000000;2217.00000000000;2547.00000000000;2551.00000000000;2386.00000000000;2425.00000000000;3059.00000000000;3336.00000000000;3505.00000000000;3455.00000000000;3327.00000000000;3191.00000000000;3166.00000000000;3178.00000000000;3153.00000000000;3057.00000000000;2988.00000000000;2925.00000000000;2861.00000000000;2787.00000000000;2739.00000000000;2730.00000000000;2703.00000000000;2682.00000000000;2662.00000000000;2665.00000000000;2676.00000000000;2656.00000000000;2612.00000000000;2598.00000000000;2599.00000000000;2623.00000000000;2645.00000000000;2633.00000000000;2631.00000000000;2634.00000000000;2644.00000000000;2672.00000000000;2657.00000000000;2664.00000000000;2650.00000000000;2663.00000000000;2691.00000000000;2649.00000000000;2686.00000000000;2661.00000000000;2655.00000000000;2676.00000000000;2658.00000000000;2659.00000000000;2673.00000000000;2667.00000000000;2657.00000000000
Gyro X : 1875.00000000000;1862.00000000000;1850.00000000000;1857.00000000000;1863.00000000000;1875.00000000000;1866.00000000000;1853.00000000000;1879.00000000000;1867.00000000000;1873.00000000000;1895.00000000000;1866.00000000000;1864.00000000000;1848.00000000000;1864.00000000000;1867.00000000000;1875.00000000000;1868.00000000000;1874.00000000000;1865.00000000000;1905.00000000000;1867.00000000000;1883.00000000000;1848.00000000000;1856.00000000000;1841.00000000000;1872.00000000000;1875.00000000000;1849.00000000000;1856.00000000000;1862.00000000000;1852.00000000000;1854.00000000000;1859.00000000000;1834.00000000000;1825.00000000000;1808.00000000000;1840.00000000000;1840.00000000000;1844.00000000000;1810.00000000000;1795.00000000000;1802.00000000000;1858.00000000000;1956.00000000000;1982.00000000000;2000.00000000000;2004.00000000000;1998.00000000000;2048.00000000000;2062.00000000000;2069.00000000000;2079.00000000000;2063.00000000000;1999.00000000000;1966.00000000000;1929.00000000000;1852.00000000000;1863.00000000000;1861.00000000000;1877.00000000000;1884.00000000000;1885.00000000000;1893.00000000000;1831.00000000000;1758.00000000000;1726.00000000000;1680.00000000000;1555.00000000000;1458.00000000000;1365.00000000000;1178.00000000000;946.000000000000;767.000000000000;651.000000000000;692.000000000000;808.000000000000;831.000000000000;850.000000000000;959.000000000000;1120.00000000000;1145.00000000000;1212.00000000000;1254.00000000000;1335.00000000000;1398.00000000000;1470.00000000000;1652.00000000000;1851.00000000000;1885.00000000000;1953.00000000000;2081.00000000000;2208.00000000000;2165.00000000000;2081.00000000000;2043.00000000000;2228.00000000000;2238.00000000000;2227.00000000000;2128.00000000000;1790.00000000000;1464.00000000000;1528.00000000000;2048.00000000000;2392.00000000000;2299.00000000000;1986.00000000000;1722.00000000000;1733.00000000000;1966.00000000000;2102.00000000000;2026.00000000000;1951.00000000000;1911.00000000000;1908.00000000000;1980.00000000000;2023.00000000000;2072.00000000000;2058.00000000000;2041.00000000000;2010.00000000000;1995.00000000000;2001.00000000000;1966.00000000000;1921.00000000000;1941.00000000000;1962.00000000000;1979.00000000000;1991.00000000000;1953.00000000000;1929.00000000000;1916.00000000000;1943.00000000000;1958.00000000000;1943.00000000000;1937.00000000000;1948.00000000000;1921.00000000000;1933.00000000000;1947.00000000000;1940.00000000000;1963.00000000000;1953.00000000000;1913.00000000000;1962.00000000000;1945.00000000000;1944.00000000000;1967.00000000000;1932.00000000000
Gyro Y : 2059.00000000000;2059.00000000000;2081.00000000000;2081.00000000000;2073.00000000000;2079.00000000000;2074.00000000000;2057.00000000000;2043.00000000000;2076.00000000000;2064.00000000000;2063.00000000000;2083.00000000000;2080.00000000000;2066.00000000000;2084.00000000000;2065.00000000000;2081.00000000000;2064.00000000000;2071.00000000000;2068.00000000000;2063.00000000000;2056.00000000000;2076.00000000000;2074.00000000000;2068.00000000000;2054.00000000000;2049.00000000000;2075.00000000000;2063.00000000000;2048.00000000000;2078.00000000000;2048.00000000000;2075.00000000000;2082.00000000000;2043.00000000000;2070.00000000000;2067.00000000000;2063.00000000000;2067.00000000000;2043.00000000000;2076.00000000000;2079.00000000000;2079.00000000000;2065.00000000000;2031.00000000000;2023.00000000000;2037.00000000000;2032.00000000000;1982.00000000000;1930.00000000000;1962.00000000000;1895.00000000000;1873.00000000000;1860.00000000000;1787.00000000000;1751.00000000000;1739.00000000000;1703.00000000000;1694.00000000000;1693.00000000000;1622.00000000000;1632.00000000000;1630.00000000000;1652.00000000000;1661.00000000000;1639.00000000000;1626.00000000000;1609.00000000000;1626.00000000000;1609.00000000000;1610.00000000000;1561.00000000000;1553.00000000000;1593.00000000000;1528.00000000000;1546.00000000000;1553.00000000000;1518.00000000000;1495.00000000000;1473.00000000000;1478.00000000000;1397.00000000000;1336.00000000000;1373.00000000000;1369.00000000000;1402.00000000000;1432.00000000000;1499.00000000000;1503.00000000000;1585.00000000000;1779.00000000000;1932.00000000000;1970.00000000000;2039.00000000000;2136.00000000000;2243.00000000000;2273.00000000000;2428.00000000000;2606.00000000000;2543.00000000000;2397.00000000000;2392.00000000000;2426.00000000000;2320.00000000000;2145.00000000000;2204.00000000000;2227.00000000000;2185.00000000000;2163.00000000000;2171.00000000000;2179.00000000000;2184.00000000000;2141.00000000000;2156.00000000000;2106.00000000000;2096.00000000000;2066.00000000000;2025.00000000000;2054.00000000000;2055.00000000000;2050.00000000000;2027.00000000000;2048.00000000000;2051.00000000000;2031.00000000000;2027.00000000000;2005.00000000000;1983.00000000000;1996.00000000000;1967.00000000000;1986.00000000000;1964.00000000000;1963.00000000000;1979.00000000000;1974.00000000000;1979.00000000000;1973.00000000000;1967.00000000000;1976.00000000000;1991.00000000000;1987.00000000000;2006.00000000000;1988.00000000000;2010.00000000000;1999.00000000000;1994.00000000000;2007.00000000000;1991.00000000000;2029.00000000000
Gyro Z : 2664.00000000000;2682.00000000000;2672.00000000000;2666.00000000000;2685.00000000000;2693.00000000000;2663.00000000000;2697.00000000000;2676.00000000000;2650.00000000000;2662.00000000000;2690.00000000000;2674.00000000000;2692.00000000000;2688.00000000000;2683.00000000000;2674.00000000000;2674.00000000000;2683.00000000000;2680.00000000000;2690.00000000000;2679.00000000000;2672.00000000000;2676.00000000000;2691.00000000000;2671.00000000000;2686.00000000000;2670.00000000000;2687.00000000000;2694.00000000000;2685.00000000000;2685.00000000000;2707.00000000000;2722.00000000000;2745.00000000000;2792.00000000000;2800.00000000000;2814.00000000000;2845.00000000000;2886.00000000000;2923.00000000000;2984.00000000000;3018.00000000000;3018.00000000000;3015.00000000000;2994.00000000000;2985.00000000000;2960.00000000000;2942.00000000000;2874.00000000000;2814.00000000000;2741.00000000000;2661.00000000000;2588.00000000000;2511.00000000000;2365.00000000000;2286.00000000000;2156.00000000000;2019.00000000000;1942.00000000000;1799.00000000000;1703.00000000000;1592.00000000000;1458.00000000000;1374.00000000000;1286.00000000000;1089.00000000000;978.000000000000;848.000000000000;717.000000000000;588.000000000000;476.000000000000;428.000000000000;440.000000000000;394.000000000000;387.000000000000;545.000000000000;670.000000000000;652.000000000000;584.000000000000;623.000000000000;619.000000000000;616.000000000000;625.000000000000;556.000000000000;584.000000000000;666.000000000000;833.000000000000;991.000000000000;1142.00000000000;1215.00000000000;1385.00000000000;1518.00000000000;1598.00000000000;1737.00000000000;1812.00000000000;1867.00000000000;1948.00000000000;2217.00000000000;2547.00000000000;2551.00000000000;2386.00000000000;2425.00000000000;3059.00000000000;3336.00000000000;3505.00000000000;3455.00000000000;3327.00000000000;3191.00000000000;3166.00000000000;3178.00000000000;3153.00000000000;3057.00000000000;2988.00000000000;2925.00000000000;2861.00000000000;2787.00000000000;2739.00000000000;2730.00000000000;2703.00000000000;2682.00000000000;2662.00000000000;2665.00000000000;2676.00000000000;2656.00000000000;2612.00000000000;2598.00000000000;2599.00000000000;2623.00000000000;2645.00000000000;2633.00000000000;2631.00000000000;2634.00000000000;2644.00000000000;2672.00000000000;2657.00000000000;2664.00000000000;2650.00000000000;2663.00000000000;2691.00000000000;2649.00000000000;2686.00000000000;2661.00000000000;2655.00000000000;2676.00000000000;2658.00000000000;2659.00000000000;2673.00000000000;2667.00000000000;2657.00000000000
COMMAND 1 SAMPLE 1
Accel X : 1922.00000000000;1944.00000000000;1943.00000000000;1916.00000000000;1877.00000000000;1907.00000000000;1924.00000000000;1924.00000000000;1950.00000000000;1949.00000000000;1965.00000000000;1981.00000000000;1979.00000000000;1989.00000000000;2007.00000000000;2017.00000000000;1986.00000000000;1966.00000000000;1982.00000000000;1997.00000000000;2000.00000000000;1979.00000000000;2009.00000000000;1994.00000000000;1980.00000000000;1991.00000000000;1962.00000000000;1991.00000000000;1992.00000000000;1973.00000000000;1971.00000000000;1955.00000000000;1962.00000000000;1962.00000000000;1971.00000000000;1961.00000000000;1919.00000000000;1959.00000000000;1956.00000000000;1991.00000000000;2028.00000000000;2043.00000000000;2037.00000000000;2007.00000000000;2124.00000000000;2335.00000000000;2496.00000000000;2553.00000000000;2583.00000000000;2624.00000000000;2637.00000000000;2719.00000000000;2813.00000000000;2723.00000000000;2596.00000000000;2409.00000000000;2279.00000000000;2296.00000000000;2231.00000000000;2154.00000000000;2008.00000000000;1853.00000000000;1721.00000000000;1549.00000000000;1501.00000000000;1252.00000000000;1061.00000000000;908.000000000000;488.000000000000;19.0000000000000;20.0000000000000;21.0000000000000;21.0000000000000;207.000000000000;1014.00000000000;1278.00000000000;1150.00000000000;899.000000000000;860.000000000000;937.000000000000;1025.00000000000;1243.00000000000;1402.00000000000;1425.00000000000;1465.00000000000;1519.00000000000;1672.00000000000;1814.00000000000;2015.00000000000;2083.00000000000;1978.00000000000;2039.00000000000;2143.00000000000;2230.00000000000;2373.00000000000;2444.00000000000;2499.00000000000;2771.00000000000;3148.00000000000;3229.00000000000;3158.00000000000;3161.00000000000;3325.00000000000;3367.00000000000;3384.00000000000;3281.00000000000;3113.00000000000;3085.00000000000;3142.00000000000;3218.00000000000;3279.00000000000;3308.00000000000;3113.00000000000;2946.00000000000;2877.00000000000;2733.00000000000;2336.00000000000;1834.00000000000;1634.00000000000;1734.00000000000;1852.00000000000;1811.00000000000;1750.00000000000;1717.00000000000;1723.00000000000;1790.00000000000;1898.00000000000;1922.00000000000;1862.00000000000;1791.00000000000;1782.00000000000;1802.00000000000;1845.00000000000;1866.00000000000;1802.00000000000;1764.00000000000;1746.00000000000;1797.00000000000;1842.00000000000;1797.00000000000;1772.00000000000;1762.00000000000;1813.00000000000;1816.00000000000;1806.00000000000;1803.00000000000;1807.00000000000;1790.00000000000;1814.00000000000;1783.00000000000
Accel Y : 2132.00000000000;2120.00000000000;2143.00000000000;2123.00000000000;2134.00000000000;2126.00000000000;2131.00000000000;2136.00000000000;2135.00000000000;2152.00000000000;2150.00000000000;2161.00000000000;2150.00000000000;2140.00000000000;2149.00000000000;2167.00000000000;2165.00000000000;2154.00000000000;2162.00000000000;2159.00000000000;2153.00000000000;2148.00000000000;2139.00000000000;2163.00000000000;2150.00000000000;2158.00000000000;2139.00000000000;2134.00000000000;2156.00000000000;2162.00000000000;2146.00000000000;2145.00000000000;2129.00000000000;2139.00000000000;2139.00000000000;2148.00000000000;2154.00000000000;2138.00000000000;2139.00000000000;2135.00000000000;2174.00000000000;2151.00000000000;2188.00000000000;2178.00000000000;2139.00000000000;2153.00000000000;2129.00000000000;2088.00000000000;2108.00000000000;2102.00000000000;2037.00000000000;1985.00000000000;1961.00000000000;1989.00000000000;1933.00000000000;1875.00000000000;1914.00000000000;1877.00000000000;1855.00000000000;1979.00000000000;1996.00000000000;1961.00000000000;1963.00000000000;1962.00000000000;2012.00000000000;1994.00000000000;1909.00000000000;1966.00000000000;2074.00000000000;2041.00000000000;2057.00000000000;2015.00000000000;1900.00000000000;1912.00000000000;1694.00000000000;1566.00000000000;1478.00000000000;1479.00000000000;1526.00000000000;1485.00000000000;1436.00000000000;1491.00000000000;1461.00000000000;1437.00000000000;1466.00000000000;1427.00000000000;1459.00000000000;1504.00000000000;1521.00000000000;1459.00000000000;1522.00000000000;1627.00000000000;1681.00000000000;1712.00000000000;1757.00000000000;1830.00000000000;1894.00000000000;1916.00000000000;2031.00000000000;1895.00000000000;1899.00000000000;1886.00000000000;1858.00000000000;1823.00000000000;1806.00000000000;1807.00000000000;1812.00000000000;1804.00000000000;1829.00000000000;1840.00000000000;1871.00000000000;1860.00000000000;1886.00000000000;1904.00000000000;1935.00000000000;1974.00000000000;1997.00000000000;2025.00000000000;2113.00000000000;2147.00000000000;2106.00000000000;2104.00000000000;2143.00000000000;2126.00000000000;2153.00000000000;2140.00000000000;2145.00000000000;2121.00000000000;2099.00000000000;2109.00000000000;2125.00000000000;2140.00000000000;2150.00000000000;2148.00000000000;2119.00000000000;2147.00000000000;2133.00000000000;2147.00000000000;2130.00000000000;2153.00000000000;2127.00000000000;2135.00000000000;2160.00000000000;2146.00000000000;2146.00000000000;2143.00000000000;2148.00000000000;2134.00000000000;2170.00000000000;2137.00000000000
Accel Z : 2727.00000000000;2692.00000000000;2699.00000000000;2697.00000000000;2701.00000000000;2707.00000000000;2707.00000000000;2707.00000000000;2679.00000000000;2691.00000000000;2688.00000000000;2691.00000000000;2681.00000000000;2660.00000000000;2664.00000000000;2647.00000000000;2651.00000000000;2635.00000000000;2653.00000000000;2676.00000000000;2639.00000000000;2658.00000000000;2643.00000000000;2707.00000000000;2675.00000000000;2681.00000000000;2696.00000000000;2689.00000000000;2692.00000000000;2714.00000000000;2718.00000000000;2715.00000000000;2710.00000000000;2726.00000000000;2730.00000000000;2760.00000000000;2780.00000000000;2829.00000000000;2855.00000000000;2917.00000000000;2944.00000000000;3019.00000000000;3097.00000000000;3093.00000000000;3085.00000000000;3136.00000000000;3119.00000000000;3054.00000000000;3007.00000000000;2920.00000000000;2765.00000000000;2623.00000000000;2513.00000000000;2331.00000000000;2152.00000000000;2039.00000000000;1906.00000000000;1824.00000000000;1794.00000000000;1767.00000000000;1683.00000000000;1601.00000000000;1604.00000000000;1579.00000000000;1632.00000000000;1508.00000000000;1456.00000000000;1701.00000000000;2152.00000000000;2701.00000000000;2364.00000000000;1813.00000000000;1852.00000000000;2032.00000000000;2328.00000000000;2308.00000000000;2142.00000000000;1893.00000000000;1775.00000000000;1683.00000000000;1617.00000000000;1674.00000000000;1747.00000000000;1710.00000000000;1604.00000000000;1580.00000000000;1616.00000000000;1664.00000000000;1609.00000000000;1570.00000000000;1552.00000000000;1590.00000000000;1635.00000000000;1616.00000000000;1603.00000000000;1713.00000000000;1690.00000000000;1717.00000000000;1873.00000000000;1916.00000000000;1971.00000000000;1935.00000000000;1962.00000000000;1949.00000000000;1981.00000000000;1999.00000000000;1952.00000000000;1956.00000000000;1935.00000000000;1935.00000000000;1912.00000000000;2056.00000000000;2004.00000000000;2015.00000000000;2070.00000000000;2056.00000000000;2094.00000000000;2251.00000000000;2439.00000000000;2575.00000000000;2639.00000000000;2657.00000000000;2703.00000000000;2752.00000000000;2772.00000000000;2768.00000000000;2783.00000000000;2750.00000000000;2751.00000000000;2740.00000000000;2743.00000000000;2717.00000000000;2731.00000000000;2732.00000000000;2705.00000000000;2689.00000000000;2671.00000000000;2672.00000000000;2669.00000000000;2649.00000000000;2631.00000000000;2646.00000000000;2651.00000000000;2679.00000000000;2667.00000000000;2684.00000000000;2658.00000000000;2666.00000000000;2672.00000000000;2689.00000000000
Gyro X : 1922.00000000000;1944.00000000000;1943.00000000000;1916.00000000000;1877.00000000000;1907.00000000000;1924.00000000000;1924.00000000000;1950.00000000000;1949.00000000000;1965.00000000000;1981.00000000000;1979.00000000000;1989.00000000000;2007.00000000000;2017.00000000000;1986.00000000000;1966.00000000000;1982.00000000000;1997.00000000000;2000.00000000000;1979.00000000000;2009.00000000000;1994.00000000000;1980.00000000000;1991.00000000000;1962.00000000000;1991.00000000000;1992.00000000000;1973.00000000000;1971.00000000000;1955.00000000000;1962.00000000000;1962.00000000000;1971.00000000000;1961.00000000000;1919.00000000000;1959.00000000000;1956.00000000000;1991.00000000000;2028.00000000000;2043.00000000000;2037.00000000000;2007.00000000000;2124.00000000000;2335.00000000000;2496.00000000000;2553.00000000000;2583.00000000000;2624.00000000000;2637.00000000000;2719.00000000000;2813.00000000000;2723.00000000000;2596.00000000000;2409.00000000000;2279.00000000000;2296.00000000000;2231.00000000000;2154.00000000000;2008.00000000000;1853.00000000000;1721.00000000000;1549.00000000000;1501.00000000000;1252.00000000000;1061.00000000000;908.000000000000;488.000000000000;19.0000000000000;20.0000000000000;21.0000000000000;21.0000000000000;207.000000000000;1014.00000000000;1278.00000000000;1150.00000000000;899.000000000000;860.000000000000;937.000000000000;1025.00000000000;1243.00000000000;1402.00000000000;1425.00000000000;1465.00000000000;1519.00000000000;1672.00000000000;1814.00000000000;2015.00000000000;2083.00000000000;1978.00000000000;2039.00000000000;2143.00000000000;2230.00000000000;2373.00000000000;2444.00000000000;2499.00000000000;2771.00000000000;3148.00000000000;3229.00000000000;3158.00000000000;3161.00000000000;3325.00000000000;3367.00000000000;3384.00000000000;3281.00000000000;3113.00000000000;3085.00000000000;3142.00000000000;3218.00000000000;3279.00000000000;3308.00000000000;3113.00000000000;2946.00000000000;2877.00000000000;2733.00000000000;2336.00000000000;1834.00000000000;1634.00000000000;1734.00000000000;1852.00000000000;1811.00000000000;1750.00000000000;1717.00000000000;1723.00000000000;1790.00000000000;1898.00000000000;1922.00000000000;1862.00000000000;1791.00000000000;1782.00000000000;1802.00000000000;1845.00000000000;1866.00000000000;1802.00000000000;1764.00000000000;1746.00000000000;1797.00000000000;1842.00000000000;1797.00000000000;1772.00000000000;1762.00000000000;1813.00000000000;1816.00000000000;1806.00000000000;1803.00000000000;1807.00000000000;1790.00000000000;1814.00000000000;1783.00000000000
Gyro Y : 2132.00000000000;2120.00000000000;2143.00000000000;2123.00000000000;2134.00000000000;2126.00000000000;2131.00000000000;2136.00000000000;2135.00000000000;2152.00000000000;2150.00000000000;2161.00000000000;2150.00000000000;2140.00000000000;2149.00000000000;2167.00000000000;2165.00000000000;2154.00000000000;2162.00000000000;2159.00000000000;2153.00000000000;2148.00000000000;2139.00000000000;2163.00000000000;2150.00000000000;2158.00000000000;2139.00000000000;2134.00000000000;2156.00000000000;2162.00000000000;2146.00000000000;2145.00000000000;2129.00000000000;2139.00000000000;2139.00000000000;2148.00000000000;2154.00000000000;2138.00000000000;2139.00000000000;2135.00000000000;2174.00000000000;2151.00000000000;2188.00000000000;2178.00000000000;2139.00000000000;2153.00000000000;2129.00000000000;2088.00000000000;2108.00000000000;2102.00000000000;2037.00000000000;1985.00000000000;1961.00000000000;1989.00000000000;1933.00000000000;1875.00000000000;1914.00000000000;1877.00000000000;1855.00000000000;1979.00000000000;1996.00000000000;1961.00000000000;1963.00000000000;1962.00000000000;2012.00000000000;1994.00000000000;1909.00000000000;1966.00000000000;2074.00000000000;2041.00000000000;2057.00000000000;2015.00000000000;1900.00000000000;1912.00000000000;1694.00000000000;1566.00000000000;1478.00000000000;1479.00000000000;1526.00000000000;1485.00000000000;1436.00000000000;1491.00000000000;1461.00000000000;1437.00000000000;1466.00000000000;1427.00000000000;1459.00000000000;1504.00000000000;1521.00000000000;1459.00000000000;1522.00000000000;1627.00000000000;1681.00000000000;1712.00000000000;1757.00000000000;1830.00000000000;1894.00000000000;1916.00000000000;2031.00000000000;1895.00000000000;1899.00000000000;1886.00000000000;1858.00000000000;1823.00000000000;1806.00000000000;1807.00000000000;1812.00000000000;1804.00000000000;1829.00000000000;1840.00000000000;1871.00000000000;1860.00000000000;1886.00000000000;1904.00000000000;1935.00000000000;1974.00000000000;1997.00000000000;2025.00000000000;2113.00000000000;2147.00000000000;2106.00000000000;2104.00000000000;2143.00000000000;2126.00000000000;2153.00000000000;2140.00000000000;2145.00000000000;2121.00000000000;2099.00000000000;2109.00000000000;2125.00000000000;2140.00000000000;2150.00000000000;2148.00000000000;2119.00000000000;2147.00000000000;2133.00000000000;2147.00000000000;2130.00000000000;2153.00000000000;2127.00000000000;2135.00000000000;2160.00000000000;2146.00000000000;2146.00000000000;2143.00000000000;2148.00000000000;2134.00000000000;2170.00000000000;2137.00000000000
Gyro Z : 2727.00000000000;2692.00000000000;2699.00000000000;2697.00000000000;2701.00000000000;2707.00000000000;2707.00000000000;2707.00000000000;2679.00000000000;2691.00000000000;2688.00000000000;2691.00000000000;2681.00000000000;2660.00000000000;2664.00000000000;2647.00000000000;2651.00000000000;2635.00000000000;2653.00000000000;2676.00000000000;2639.00000000000;2658.00000000000;2643.00000000000;2707.00000000000;2675.00000000000;2681.00000000000;2696.00000000000;2689.00000000000;2692.00000000000;2714.00000000000;2718.00000000000;2715.00000000000;2710.00000000000;2726.00000000000;2730.00000000000;2760.00000000000;2780.00000000000;2829.00000000000;2855.00000000000;2917.00000000000;2944.00000000000;3019.00000000000;3097.00000000000;3093.00000000000;3085.00000000000;3136.00000000000;3119.00000000000;3054.00000000000;3007.00000000000;2920.00000000000;2765.00000000000;2623.00000000000;2513.00000000000;2331.00000000000;2152.00000000000;2039.00000000000;1906.00000000000;1824.00000000000;1794.00000000000;1767.00000000000;1683.00000000000;1601.00000000000;1604.00000000000;1579.00000000000;1632.00000000000;1508.00000000000;1456.00000000000;1701.00000000000;2152.00000000000;2701.00000000000;2364.00000000000;1813.00000000000;1852.00000000000;2032.00000000000;2328.00000000000;2308.00000000000;2142.00000000000;1893.00000000000;1775.00000000000;1683.00000000000;1617.00000000000;1674.00000000000;1747.00000000000;1710.00000000000;1604.00000000000;1580.00000000000;1616.00000000000;1664.00000000000;1609.00000000000;1570.00000000000;1552.00000000000;1590.00000000000;1635.00000000000;1616.00000000000;1603.00000000000;1713.00000000000;1690.00000000000;1717.00000000000;1873.00000000000;1916.00000000000;1971.00000000000;1935.00000000000;1962.00000000000;1949.00000000000;1981.00000000000;1999.00000000000;1952.00000000000;1956.00000000000;1935.00000000000;1935.00000000000;1912.00000000000;2056.00000000000;2004.00000000000;2015.00000000000;2070.00000000000;2056.00000000000;2094.00000000000;2251.00000000000;2439.00000000000;2575.00000000000;2639.00000000000;2657.00000000000;2703.00000000000;2752.00000000000;2772.00000000000;2768.00000000000;2783.00000000000;2750.00000000000;2751.00000000000;2740.00000000000;2743.00000000000;2717.00000000000;2731.00000000000;2732.00000000000;2705.00000000000;2689.00000000000;2671.00000000000;2672.00000000000;2669.00000000000;2649.00000000000;2631.00000000000;2646.00000000000;2651.00000000000;2679.00000000000;2667.00000000000;2684.00000000000;2658.00000000000;2666.00000000000;2672.00000000000;2689.00000000000
COMMAND 1 SAMPLE 1
Accel X : 1870.00000000000;1843.00000000000;1830.00000000000;1866.00000000000;1842.00000000000;1833.00000000000;1855.00000000000;1849.00000000000;1841.00000000000;1843.00000000000;1835.00000000000;1841.00000000000;1872.00000000000;1868.00000000000;1836.00000000000;1815.00000000000;1846.00000000000;1847.00000000000;1840.00000000000;1828.00000000000;1837.00000000000;1829.00000000000;1844.00000000000;1829.00000000000;1825.00000000000;1815.00000000000;1776.00000000000;1797.00000000000;1816.00000000000;1881.00000000000;1940.00000000000;1960.00000000000;2044.00000000000;2160.00000000000;2329.00000000000;2455.00000000000;2572.00000000000;2689.00000000000;2777.00000000000;2843.00000000000;2856.00000000000;2848.00000000000;2933.00000000000;2844.00000000000;2753.00000000000;2787.00000000000;2768.00000000000;2676.00000000000;2639.00000000000;2475.00000000000;2338.00000000000;2219.00000000000;2087.00000000000;1939.00000000000;1856.00000000000;1824.00000000000;1734.00000000000;1645.00000000000;1552.00000000000;1419.00000000000;1290.00000000000;1232.00000000000;1138.00000000000;993.000000000000;746.000000000000;507.000000000000;140.000000000000;21.0000000000000;19.0000000000000;21.0000000000000;23.0000000000000;152.000000000000;509.000000000000;685.000000000000;676.000000000000;774.000000000000;1000.00000000000;1181.00000000000;1326.00000000000;1563.00000000000;1688.00000000000;1729.00000000000;1848.00000000000;1938.00000000000;2073.00000000000;2149.00000000000;2176.00000000000;2328.00000000000;2373.00000000000;2415.00000000000;2668.00000000000;3087.00000000000;3199.00000000000;3383.00000000000;3160.00000000000;2688.00000000000;2970.00000000000;3514.00000000000;3699.00000000000;3631.00000000000;3503.00000000000;3434.00000000000;3468.00000000000;3558.00000000000;3443.00000000000;2946.00000000000;2270.00000000000;2312.00000000000;2775.00000000000;2776.00000000000;2390.00000000000;2182.00000000000;2213.00000000000;2198.00000000000;2056.00000000000;1847.00000000000;1676.00000000000;1647.00000000000;1597.00000000000;1662.00000000000;1684.00000000000;1636.00000000000;1684.00000000000;1647.00000000000;1574.00000000000;1580.00000000000;1575.00000000000;1607.00000000000;1679.00000000000;1669.00000000000;1650.00000000000;1624.00000000000;1650.00000000000;1697.00000000000;1707.00000000000;1704.00000000000;1686.00000000000;1673.00000000000;1695.00000000000;1710.00000000000;1697.00000000000;1717.00000000000;1713.00000000000;1722.00000000000;1721.00000000000;1733.00000000000;1718.00000000000;1724.00000000000;1732.00000000000;1756.00000000000
Accel Y : 2075.00000000000;2066.00000000000;2059.00000000000;2074.00000000000;2058.00000000000;2058.00000000000;2051.00000000000;2061.00000000000;2050.00000000000;2057.00000000000;2054.00000000000;2046.00000000000;2035.00000000000;2055.00000000000;2037.00000000000;2039.00000000000;2065.00000000000;2056.00000000000;2055.00000000000;2037.00000000000;2075.00000000000;2044.00000000000;2073.00000000000;2051.00000000000;2062.00000000000;2064.00000000000;2064.00000000000;2054.00000000000;2047.00000000000;2056.00000000000;2042.00000000000;2057.00000000000;1999.00000000000;1987.00000000000;1977.00000000000;1959.00000000000;1933.00000000000;1899.00000000000;1881.00000000000;1835.00000000000;1791.00000000000;1769.00000000000;1753.00000000000;1749.00000000000;1724.00000000000;1666.00000000000;1635.00000000000;1632.00000000000;1653.00000000000;1585.00000000000;1535.00000000000;1575.00000000000;1547.00000000000;1512.00000000000;1493.00000000000;1518.00000000000;1558.00000000000;1551.00000000000;1522.00000000000;1541.00000000000;1579.00000000000;1593.00000000000;1668.00000000000;1733.00000000000;1749.00000000000;1819.00000000000;1813.00000000000;1842.00000000000;1897.00000000000;1884.00000000000;1816.00000000000;1790.00000000000;1738.00000000000;1704.00000000000;1694.00000000000;1679.00000000000;1676.00000000000;1667.00000000000;1641.00000000000;1663.00000000000;1633.00000000000;1603.00000000000;1711.00000000000;1759.00000000000;1771.00000000000;1824.00000000000;1893.00000000000;1963.00000000000;1985.00000000000;2062.00000000000;2281.00000000000;2358.00000000000;2310.00000000000;2305.00000000000;2083.00000000000;1933.00000000000;2020.00000000000;2016.00000000000;1947.00000000000;2016.00000000000;2036.00000000000;2027.00000000000;2042.00000000000;2049.00000000000;2109.00000000000;2118.00000000000;2097.00000000000;2187.00000000000;2158.00000000000;2116.00000000000;2107.00000000000;2106.00000000000;2090.00000000000;2086.00000000000;2070.00000000000;2074.00000000000;2077.00000000000;2084.00000000000;2078.00000000000;2068.00000000000;2023.00000000000;2028.00000000000;2008.00000000000;2010.00000000000;2023.00000000000;2029.00000000000;2055.00000000000;2048.00000000000;2061.00000000000;2053.00000000000;2062.00000000000;2064.00000000000;2079.00000000000;2089.00000000000;2086.00000000000;2064.00000000000;2060.00000000000;2085.00000000000;2064.00000000000;2080.00000000000;2059.00000000000;2082.00000000000;2085.00000000000;2082.00000000000;2071.00000000000;2079.00000000000;2067.00000000000;2074.00000000000;2084.00000000000;2077.00000000000
Accel Z : 2669.00000000000;2674.00000000000;2671.00000000000;2677.00000000000;2671.00000000000;2670.00000000000;2676.00000000000;2691.00000000000;2670.00000000000;2661.00000000000;2655.00000000000;2685.00000000000;2650.00000000000;2702.00000000000;2669.00000000000;2667.00000000000;2668.00000000000;2681.00000000000;2665.00000000000;2676.00000000000;2690.00000000000;2701.00000000000;2703.00000000000;2710.00000000000;2750.00000000000;2732.00000000000;2738.00000000000;2748.00000000000;2762.00000000000;2789.00000000000;2805.00000000000;2801.00000000000;2803.00000000000;2789.00000000000;2735.00000000000;2669.00000000000;2590.00000000000;2560.00000000000;2513.00000000000;2431.00000000000;2375.00000000000;2292.00000000000;2248.00000000000;2190.00000000000;2077.00000000000;2003.00000000000;1963.00000000000;1922.00000000000;1885.00000000000;1876.00000000000;1856.00000000000;1793.00000000000;1785.00000000000;1769.00000000000;1712.00000000000;1700.00000000000;1700.00000000000;1725.00000000000;1637.00000000000;1650.00000000000;1601.00000000000;1617.00000000000;1665.00000000000;1745.00000000000;1825.00000000000;1970.00000000000;2149.00000000000;2253.00000000000;2193.00000000000;2031.00000000000;1994.00000000000;1971.00000000000;1977.00000000000;1986.00000000000;1895.00000000000;1849.00000000000;1739.00000000000;1714.00000000000;1704.00000000000;1742.00000000000;1768.00000000000;1657.00000000000;1638.00000000000;1571.00000000000;1565.00000000000;1567.00000000000;1588.00000000000;1620.00000000000;1608.00000000000;1529.00000000000;1797.00000000000;1904.00000000000;1785.00000000000;1815.00000000000;1630.00000000000;1621.00000000000;1848.00000000000;1947.00000000000;1962.00000000000;1927.00000000000;1921.00000000000;1876.00000000000;1952.00000000000;2039.00000000000;2151.00000000000;2275.00000000000;2449.00000000000;2464.00000000000;2397.00000000000;2445.00000000000;2498.00000000000;2517.00000000000;2533.00000000000;2489.00000000000;2478.00000000000;2496.00000000000;2529.00000000000;2553.00000000000;2591.00000000000;2559.00000000000;2599.00000000000;2623.00000000000;2639.00000000000;2614.00000000000;2604.00000000000;2592.00000000000;2648.00000000000;2654.00000000000;2672.00000000000;2648.00000000000;2634.00000000000;2637.00000000000;2642.00000000000;2637.00000000000;2680.00000000000;2630.00000000000;2630.00000000000;2649.00000000000;2639.00000000000;2624.00000000000;2648.00000000000;2647.00000000000;2648.00000000000;2652.00000000000;2632.00000000000;2649.00000000000;2638.00000000000;2669.00000000000;2659.00000000000;2658.00000000000
Gyro X : 1870.00000000000;1843.00000000000;1830.00000000000;1866.00000000000;1842.00000000000;1833.00000000000;1855.00000000000;1849.00000000000;1841.00000000000;1843.00000000000;1835.00000000000;1841.00000000000;1872.00000000000;1868.00000000000;1836.00000000000;1815.00000000000;1846.00000000000;1847.00000000000;1840.00000000000;1828.00000000000;1837.00000000000;1829.00000000000;1844.00000000000;1829.00000000000;1825.00000000000;1815.00000000000;1776.00000000000;1797.00000000000;1816.00000000000;1881.00000000000;1940.00000000000;1960.00000000000;2044.00000000000;2160.00000000000;2329.00000000000;2455.00000000000;2572.00000000000;2689.00000000000;2777.00000000000;2843.00000000000;2856.00000000000;2848.00000000000;2933.00000000000;2844.00000000000;2753.00000000000;2787.00000000000;2768.00000000000;2676.00000000000;2639.00000000000;2475.00000000000;2338.00000000000;2219.00000000000;2087.00000000000;1939.00000000000;1856.00000000000;1824.00000000000;1734.00000000000;1645.00000000000;1552.00000000000;1419.00000000000;1290.00000000000;1232.00000000000;1138.00000000000;993.000000000000;746.000000000000;507.000000000000;140.000000000000;21.0000000000000;19.0000000000000;21.0000000000000;23.0000000000000;152.000000000000;509.000000000000;685.000000000000;676.000000000000;774.000000000000;1000.00000000000;1181.00000000000;1326.00000000000;1563.00000000000;1688.00000000000;1729.00000000000;1848.00000000000;1938.00000000000;2073.00000000000;2149.00000000000;2176.00000000000;2328.00000000000;2373.00000000000;2415.00000000000;2668.00000000000;3087.00000000000;3199.00000000000;3383.00000000000;3160.00000000000;2688.00000000000;2970.00000000000;3514.00000000000;3699.00000000000;3631.00000000000;3503.00000000000;3434.00000000000;3468.00000000000;3558.00000000000;3443.00000000000;2946.00000000000;2270.00000000000;2312.00000000000;2775.00000000000;2776.00000000000;2390.00000000000;2182.00000000000;2213.00000000000;2198.00000000000;2056.00000000000;1847.00000000000;1676.00000000000;1647.00000000000;1597.00000000000;1662.00000000000;1684.00000000000;1636.00000000000;1684.00000000000;1647.00000000000;1574.00000000000;1580.00000000000;1575.00000000000;1607.00000000000;1679.00000000000;1669.00000000000;1650.00000000000;1624.00000000000;1650.00000000000;1697.00000000000;1707.00000000000;1704.00000000000;1686.00000000000;1673.00000000000;1695.00000000000;1710.00000000000;1697.00000000000;1717.00000000000;1713.00000000000;1722.00000000000;1721.00000000000;1733.00000000000;1718.00000000000;1724.00000000000;1732.00000000000;1756.00000000000
Gyro Y : 2075.00000000000;2066.00000000000;2059.00000000000;2074.00000000000;2058.00000000000;2058.00000000000;2051.00000000000;2061.00000000000;2050.00000000000;2057.00000000000;2054.00000000000;2046.00000000000;2035.00000000000;2055.00000000000;2037.00000000000;2039.00000000000;2065.00000000000;2056.00000000000;2055.00000000000;2037.00000000000;2075.00000000000;2044.00000000000;2073.00000000000;2051.00000000000;2062.00000000000;2064.00000000000;2064.00000000000;2054.00000000000;2047.00000000000;2056.00000000000;2042.00000000000;2057.00000000000;1999.00000000000;1987.00000000000;1977.00000000000;1959.00000000000;1933.00000000000;1899.00000000000;1881.00000000000;1835.00000000000;1791.00000000000;1769.00000000000;1753.00000000000;1749.00000000000;1724.00000000000;1666.00000000000;1635.00000000000;1632.00000000000;1653.00000000000;1585.00000000000;1535.00000000000;1575.00000000000;1547.00000000000;1512.00000000000;1493.00000000000;1518.00000000000;1558.00000000000;1551.00000000000;1522.00000000000;1541.00000000000;1579.00000000000;1593.00000000000;1668.00000000000;1733.00000000000;1749.00000000000;1819.00000000000;1813.00000000000;1842.00000000000;1897.00000000000;1884.00000000000;1816.00000000000;1790.00000000000;1738.00000000000;1704.00000000000;1694.00000000000;1679.00000000000;1676.00000000000;1667.00000000000;1641.00000000000;1663.00000000000;1633.00000000000;1603.00000000000;1711.00000000000;1759.00000000000;1771.00000000000;1824.00000000000;1893.00000000000;1963.00000000000;1985.00000000000;2062.00000000000;2281.00000000000;2358.00000000000;2310.00000000000;2305.00000000000;2083.00000000000;1933.00000000000;2020.00000000000;2016.00000000000;1947.00000000000;2016.00000000000;2036.00000000000;2027.00000000000;2042.00000000000;2049.00000000000;2109.00000000000;2118.00000000000;2097.00000000000;2187.00000000000;2158.00000000000;2116.00000000000;2107.00000000000;2106.00000000000;2090.00000000000;2086.00000000000;2070.00000000000;2074.00000000000;2077.00000000000;2084.00000000000;2078.00000000000;2068.00000000000;2023.00000000000;2028.00000000000;2008.00000000000;2010.00000000000;2023.00000000000;2029.00000000000;2055.00000000000;2048.00000000000;2061.00000000000;2053.00000000000;2062.00000000000;2064.00000000000;2079.00000000000;2089.00000000000;2086.00000000000;2064.00000000000;2060.00000000000;2085.00000000000;2064.00000000000;2080.00000000000;2059.00000000000;2082.00000000000;2085.00000000000;2082.00000000000;2071.00000000000;2079.00000000000;2067.00000000000;2074.00000000000;2084.00000000000;2077.00000000000
Gyro Z : 2669.00000000000;2674.00000000000;2671.00000000000;2677.00000000000;2671.00000000000;2670.00000000000;2676.00000000000;2691.00000000000;2670.00000000000;2661.00000000000;2655.00000000000;2685.00000000000;2650.00000000000;2702.00000000000;2669.00000000000;2667.00000000000;2668.00000000000;2681.00000000000;2665.00000000000;2676.00000000000;2690.00000000000;2701.00000000000;2703.00000000000;2710.00000000000;2750.00000000000;2732.00000000000;2738.00000000000;2748.00000000000;2762.00000000000;2789.00000000000;2805.00000000000;2801.00000000000;2803.00000000000;2789.00000000000;2735.00000000000;2669.00000000000;2590.00000000000;2560.00000000000;2513.00000000000;2431.00000000000;2375.00000000000;2292.00000000000;2248.00000000000;2190.00000000000;2077.00000000000;2003.00000000000;1963.00000000000;1922.00000000000;1885.00000000000;1876.00000000000;1856.00000000000;1793.00000000000;1785.00000000000;1769.00000000000;1712.00000000000;1700.00000000000;1700.00000000000;1725.00000000000;1637.00000000000;1650.00000000000;1601.00000000000;1617.00000000000;1665.00000000000;1745.00000000000;1825.00000000000;1970.00000000000;2149.00000000000;2253.00000000000;2193.00000000000;2031.00000000000;1994.00000000000;1971.00000000000;1977.00000000000;1986.00000000000;1895.00000000000;1849.00000000000;1739.00000000000;1714.00000000000;1704.00000000000;1742.00000000000;1768.00000000000;1657.00000000000;1638.00000000000;1571.00000000000;1565.00000000000;1567.00000000000;1588.00000000000;1620.00000000000;1608.00000000000;1529.00000000000;1797.00000000000;1904.00000000000;1785.00000000000;1815.00000000000;1630.00000000000;1621.00000000000;1848.00000000000;1947.00000000000;1962.00000000000;1927.00000000000;1921.00000000000;1876.00000000000;1952.00000000000;2039.00000000000;2151.00000000000;2275.00000000000;2449.00000000000;2464.00000000000;2397.00000000000;2445.00000000000;2498.00000000000;2517.00000000000;2533.00000000000;2489.00000000000;2478.00000000000;2496.00000000000;2529.00000000000;2553.00000000000;2591.00000000000;2559.00000000000;2599.00000000000;2623.00000000000;2639.00000000000;2614.00000000000;2604.00000000000;2592.00000000000;2648.00000000000;2654.00000000000;2672.00000000000;2648.00000000000;2634.00000000000;2637.00000000000;2642.00000000000;2637.00000000000;2680.00000000000;2630.00000000000;2630.00000000000;2649.00000000000;2639.00000000000;2624.00000000000;2648.00000000000;2647.00000000000;2648.00000000000;2652.00000000000;2632.00000000000;2649.00000000000;2638.00000000000;2669.00000000000;2659.00000000000;2658.00000000000
COMMAND 1 SAMPLE 1
Accel X : 1758.00000000000;1740.00000000000;1767.00000000000;1756.00000000000;1777.00000000000;1758.00000000000;1775.00000000000;1766.00000000000;1749.00000000000;1739.00000000000;1747.00000000000;1763.00000000000;1773.00000000000;1750.00000000000;1765.00000000000;1749.00000000000;1752.00000000000;1770.00000000000;1765.00000000000;1761.00000000000;1766.00000000000;1766.00000000000;1744.00000000000;1735.00000000000;1739.00000000000;1727.00000000000;1726.00000000000;1701.00000000000;1710.00000000000;1686.00000000000;1670.00000000000;1719.00000000000;1711.00000000000;1719.00000000000;1764.00000000000;1899.00000000000;2086.00000000000;2254.00000000000;2359.00000000000;2683.00000000000;2962.00000000000;3090.00000000000;3235.00000000000;3310.00000000000;3220.00000000000;3074.00000000000;2886.00000000000;2652.00000000000;2387.00000000000;2193.00000000000;2080.00000000000;1945.00000000000;1791.00000000000;1703.00000000000;1683.00000000000;1603.00000000000;1432.00000000000;1200.00000000000;918.000000000000;582.000000000000;165.000000000000;20.0000000000000;18.0000000000000;20.0000000000000;20.0000000000000;24.0000000000000;630.000000000000;843.000000000000;864.000000000000;923.000000000000;1052.00000000000;1081.00000000000;1304.00000000000;1565.00000000000;1840.00000000000;1989.00000000000;1997.00000000000;2124.00000000000;2095.00000000000;2127.00000000000;2262.00000000000;2437.00000000000;2575.00000000000;2655.00000000000;2875.00000000000;3042.00000000000;2976.00000000000;2973.00000000000;2995.00000000000;2923.00000000000;3093.00000000000;3352.00000000000;3483.00000000000;3474.00000000000;3339.00000000000;3344.00000000000;3353.00000000000;3342.00000000000;3322.00000000000;3462.00000000000;3431.00000000000;3273.00000000000;3087.00000000000;2889.00000000000;2673.00000000000;2364.00000000000;2037.00000000000;1815.00000000000;1782.00000000000;1822.00000000000;1729.00000000000;1437.00000000000;1557.00000000000;1780.00000000000;1709.00000000000;1730.00000000000;1800.00000000000;1764.00000000000;1734.00000000000;1769.00000000000;1728.00000000000;1739.00000000000;1796.00000000000;1844.00000000000;1830.00000000000;1786.00000000000;1790.00000000000;1787.00000000000;1810.00000000000;1840.00000000000;1810.00000000000;1804.00000000000;1783.00000000000;1814.00000000000;1791.00000000000;1802.00000000000;1798.00000000000;1782.00000000000;1797.00000000000;1783.00000000000;1767.00000000000;1794.00000000000;1799.00000000000;1784.00000000000;1783.00000000000;1806.00000000000;1762.00000000000;1793.00000000000;1805.00000000000;1803.00000000000
Accel Y : 2060.00000000000;2104.00000000000;2094.00000000000;2096.00000000000;2095.00000000000;2104.00000000000;2087.00000000000;2087.00000000000;2134.00000000000;2104.00000000000;2104.00000000000;2102.00000000000;2101.00000000000;2107.00000000000;2121.00000000000;2108.00000000000;2129.00000000000;2113.00000000000;2136.00000000000;2110.00000000000;2102.00000000000;2096.00000000000;2093.00000000000;2122.00000000000;2125.00000000000;2102.00000000000;2119.00000000000;2114.00000000000;2122.00000000000;2122.00000000000;2121.00000000000;2156.00000000000;2166.00000000000;2187.00000000000;2179.00000000000;2151.00000000000;2127.00000000000;2144.00000000000;2108.00000000000;2041.00000000000;2004.00000000000;1973.00000000000;1910.00000000000;1990.00000000000;1983.00000000000;1951.00000000000;1930.00000000000;1974.00000000000;1955.00000000000;1883.00000000000;1886.00000000000;1893.00000000000;1828.00000000000;1802.00000000000;1857.00000000000;1924.00000000000;1965.00000000000;1963.00000000000;1984.00000000000;2038.00000000000;2086.00000000000;2094.00000000000;2217.00000000000;2305.00000000000;1914.00000000000;1922.00000000000;1768.00000000000;1679.00000000000;1651.00000000000;1649.00000000000;1588.00000000000;1601.00000000000;1613.00000000000;1649.00000000000;1686.00000000000;1672.00000000000;1680.00000000000;1674.00000000000;1706.00000000000;1861.00000000000;1955.00000000000;1913.00000000000;1964.00000000000;2045.00000000000;2172.00000000000;2133.00000000000;2057.00000000000;1988.00000000000;1940.00000000000;1935.00000000000;1919.00000000000;1886.00000000000;1893.00000000000;1903.00000000000;1946.00000000000;1951.00000000000;1930.00000000000;1976.00000000000;1937.00000000000;1968.00000000000;1973.00000000000;1961.00000000000;1947.00000000000;1983.00000000000;2046.00000000000;2007.00000000000;2003.00000000000;2008.00000000000;2031.00000000000;2056.00000000000;2059.00000000000;2045.00000000000;2092.00000000000;2075.00000000000;2038.00000000000;2061.00000000000;2071.00000000000;2075.00000000000;2092.00000000000;2105.00000000000;2082.00000000000;2074.00000000000;2092.00000000000;2101.00000000000;2064.00000000000;2074.00000000000;2081.00000000000;2103.00000000000;2088.00000000000;2087.00000000000;2096.00000000000;2077.00000000000;2092.00000000000;2081.00000000000;2092.00000000000;2072.00000000000;2103.00000000000;2087.00000000000;2064.00000000000;2101.00000000000;2081.00000000000;2069.00000000000;2098.00000000000;2075.00000000000;2072.00000000000;2094.00000000000;2090.00000000000;2080.00000000000;2094.00000000000;2085.00000000000
Accel Z : 2631.00000000000;2638.00000000000;2631.00000000000;2640.00000000000;2658.00000000000;2637.00000000000;2635.00000000000;2632.00000000000;2649.00000000000;2639.00000000000;2637.00000000000;2628.00000000000;2661.00000000000;2656.00000000000;2662.00000000000;2663.00000000000;2659.00000000000;2654.00000000000;2655.00000000000;2675.00000000000;2664.00000000000;2670.00000000000;2640.00000000000;2677.00000000000;2657.00000000000;2665.00000000000;2681.00000000000;2702.00000000000;2712.00000000000;2735.00000000000;2736.00000000000;2797.00000000000;2862.00000000000;2924.00000000000;2933.00000000000;3000.00000000000;3016.00000000000;2982.00000000000;2879.00000000000;2741.00000000000;2576.00000000000;2468.00000000000;2323.00000000000;2222.00000000000;2091.00000000000;1982.00000000000;1910.00000000000;1900.00000000000;1828.00000000000;1754.00000000000;1704.00000000000;1684.00000000000;1615.00000000000;1557.00000000000;1579.00000000000;1625.00000000000;1614.00000000000;1598.00000000000;1677.00000000000;1801.00000000000;2115.00000000000;2647.00000000000;2718.00000000000;2268.00000000000;2268.00000000000;2121.00000000000;2106.00000000000;2025.00000000000;2047.00000000000;1964.00000000000;1845.00000000000;1695.00000000000;1647.00000000000;1710.00000000000;1785.00000000000;1764.00000000000;1575.00000000000;1540.00000000000;1583.00000000000;1705.00000000000;1555.00000000000;1489.00000000000;1440.00000000000;1509.00000000000;1736.00000000000;1747.00000000000;1583.00000000000;1609.00000000000;1803.00000000000;1900.00000000000;1868.00000000000;1839.00000000000;1856.00000000000;1842.00000000000;1858.00000000000;1802.00000000000;1804.00000000000;1774.00000000000;1762.00000000000;1798.00000000000;1816.00000000000;1807.00000000000;1865.00000000000;1943.00000000000;2030.00000000000;2153.00000000000;2245.00000000000;2263.00000000000;2425.00000000000;2512.00000000000;2561.00000000000;2533.00000000000;2629.00000000000;2635.00000000000;2667.00000000000;2703.00000000000;2709.00000000000;2696.00000000000;2698.00000000000;2718.00000000000;2710.00000000000;2694.00000000000;2709.00000000000;2693.00000000000;2686.00000000000;2686.00000000000;2667.00000000000;2647.00000000000;2647.00000000000;2637.00000000000;2641.00000000000;2635.00000000000;2643.00000000000;2660.00000000000;2661.00000000000;2657.00000000000;2640.00000000000;2659.00000000000;2676.00000000000;2673.00000000000;2659.00000000000;2670.00000000000;2670.00000000000;2676.00000000000;2677.00000000000;2682.00000000000;2667.00000000000;2656.00000000000;2676.00000000000;2649.00000000000
Gyro X : 1758.00000000000;1740.00000000000;1767.00000000000;1756.00000000000;1777.00000000000;1758.00000000000;1775.00000000000;1766.00000000000;1749.00000000000;1739.00000000000;1747.00000000000;1763.00000000000;1773.00000000000;1750.00000000000;1765.00000000000;1749.00000000000;1752.00000000000;1770.00000000000;1765.00000000000;1761.00000000000;1766.00000000000;1766.00000000000;1744.00000000000;1735.00000000000;1739.00000000000;1727.00000000000;1726.00000000000;1701.00000000000;1710.00000000000;1686.00000000000;1670.00000000000;1719.00000000000;1711.00000000000;1719.00000000000;1764.00000000000;1899.00000000000;2086.00000000000;2254.00000000000;2359.00000000000;2683.00000000000;2962.00000000000;3090.00000000000;3235.00000000000;3310.00000000000;3220.00000000000;3074.00000000000;2886.00000000000;2652.00000000000;2387.00000000000;2193.00000000000;2080.00000000000;1945.00000000000;1791.00000000000;1703.00000000000;1683.00000000000;1603.00000000000;1432.00000000000;1200.00000000000;918.000000000000;582.000000000000;165.000000000000;20.0000000000000;18.0000000000000;20.0000000000000;20.0000000000000;24.0000000000000;630.000000000000;843.000000000000;864.000000000000;923.000000000000;1052.00000000000;1081.00000000000;1304.00000000000;1565.00000000000;1840.00000000000;1989.00000000000;1997.00000000000;2124.00000000000;2095.00000000000;2127.00000000000;2262.00000000000;2437.00000000000;2575.00000000000;2655.00000000000;2875.00000000000;3042.00000000000;2976.00000000000;2973.00000000000;2995.00000000000;2923.00000000000;3093.00000000000;3352.00000000000;3483.00000000000;3474.00000000000;3339.00000000000;3344.00000000000;3353.00000000000;3342.00000000000;3322.00000000000;3462.00000000000;3431.00000000000;3273.00000000000;3087.00000000000;2889.00000000000;2673.00000000000;2364.00000000000;2037.00000000000;1815.00000000000;1782.00000000000;1822.00000000000;1729.00000000000;1437.00000000000;1557.00000000000;1780.00000000000;1709.00000000000;1730.00000000000;1800.00000000000;1764.00000000000;1734.00000000000;1769.00000000000;1728.00000000000;1739.00000000000;1796.00000000000;1844.00000000000;1830.00000000000;1786.00000000000;1790.00000000000;1787.00000000000;1810.00000000000;1840.00000000000;1810.00000000000;1804.00000000000;1783.00000000000;1814.00000000000;1791.00000000000;1802.00000000000;1798.00000000000;1782.00000000000;1797.00000000000;1783.00000000000;1767.00000000000;1794.00000000000;1799.00000000000;1784.00000000000;1783.00000000000;1806.00000000000;1762.00000000000;1793.00000000000;1805.00000000000;1803.00000000000
Gyro Y : 2060.00000000000;2104.00000000000;2094.00000000000;2096.00000000000;2095.00000000000;2104.00000000000;2087.00000000000;2087.00000000000;2134.00000000000;2104.00000000000;2104.00000000000;2102.00000000000;2101.00000000000;2107.00000000000;2121.00000000000;2108.00000000000;2129.00000000000;2113.00000000000;2136.00000000000;2110.00000000000;2102.00000000000;2096.00000000000;2093.00000000000;2122.00000000000;2125.00000000000;2102.00000000000;2119.00000000000;2114.00000000000;2122.00000000000;2122.00000000000;2121.00000000000;2156.00000000000;2166.00000000000;2187.00000000000;2179.00000000000;2151.00000000000;2127.00000000000;2144.00000000000;2108.00000000000;2041.00000000000;2004.00000000000;1973.00000000000;1910.00000000000;1990.00000000000;1983.00000000000;1951.00000000000;1930.00000000000;1974.00000000000;1955.00000000000;1883.00000000000;1886.00000000000;1893.00000000000;1828.00000000000;1802.00000000000;1857.00000000000;1924.00000000000;1965.00000000000;1963.00000000000;1984.00000000000;2038.00000000000;2086.00000000000;2094.00000000000;2217.00000000000;2305.00000000000;1914.00000000000;1922.00000000000;1768.00000000000;1679.00000000000;1651.00000000000;1649.00000000000;1588.00000000000;1601.00000000000;1613.00000000000;1649.00000000000;1686.00000000000;1672.00000000000;1680.00000000000;1674.00000000000;1706.00000000000;1861.00000000000;1955.00000000000;1913.00000000000;1964.00000000000;2045.00000000000;2172.00000000000;2133.00000000000;2057.00000000000;1988.00000000000;1940.00000000000;1935.00000000000;1919.00000000000;1886.00000000000;1893.00000000000;1903.00000000000;1946.00000000000;1951.00000000000;1930.00000000000;1976.00000000000;1937.00000000000;1968.00000000000;1973.00000000000;1961.00000000000;1947.00000000000;1983.00000000000;2046.00000000000;2007.00000000000;2003.00000000000;2008.00000000000;2031.00000000000;2056.00000000000;2059.00000000000;2045.00000000000;2092.00000000000;2075.00000000000;2038.00000000000;2061.00000000000;2071.00000000000;2075.00000000000;2092.00000000000;2105.00000000000;2082.00000000000;2074.00000000000;2092.00000000000;2101.00000000000;2064.00000000000;2074.00000000000;2081.00000000000;2103.00000000000;2088.00000000000;2087.00000000000;2096.00000000000;2077.00000000000;2092.00000000000;2081.00000000000;2092.00000000000;2072.00000000000;2103.00000000000;2087.00000000000;2064.00000000000;2101.00000000000;2081.00000000000;2069.00000000000;2098.00000000000;2075.00000000000;2072.00000000000;2094.00000000000;2090.00000000000;2080.00000000000;2094.00000000000;2085.00000000000
Gyro Z : 2631.00000000000;2638.00000000000;2631.00000000000;2640.00000000000;2658.00000000000;2637.00000000000;2635.00000000000;2632.00000000000;2649.00000000000;2639.00000000000;2637.00000000000;2628.00000000000;2661.00000000000;2656.00000000000;2662.00000000000;2663.00000000000;2659.00000000000;2654.00000000000;2655.00000000000;2675.00000000000;2664.00000000000;2670.00000000000;2640.00000000000;2677.00000000000;2657.00000000000;2665.00000000000;2681.00000000000;2702.00000000000;2712.00000000000;2735.00000000000;2736.00000000000;2797.00000000000;2862.00000000000;2924.00000000000;2933.00000000000;3000.00000000000;3016.00000000000;2982.00000000000;2879.00000000000;2741.00000000000;2576.00000000000;2468.00000000000;2323.00000000000;2222.00000000000;2091.00000000000;1982.00000000000;1910.00000000000;1900.00000000000;1828.00000000000;1754.00000000000;1704.00000000000;1684.00000000000;1615.00000000000;1557.00000000000;1579.00000000000;1625.00000000000;1614.00000000000;1598.00000000000;1677.00000000000;1801.00000000000;2115.00000000000;2647.00000000000;2718.00000000000;2268.00000000000;2268.00000000000;2121.00000000000;2106.00000000000;2025.00000000000;2047.00000000000;1964.00000000000;1845.00000000000;1695.00000000000;1647.00000000000;1710.00000000000;1785.00000000000;1764.00000000000;1575.00000000000;1540.00000000000;1583.00000000000;1705.00000000000;1555.00000000000;1489.00000000000;1440.00000000000;1509.00000000000;1736.00000000000;1747.00000000000;1583.00000000000;1609.00000000000;1803.00000000000;1900.00000000000;1868.00000000000;1839.00000000000;1856.00000000000;1842.00000000000;1858.00000000000;1802.00000000000;1804.00000000000;1774.00000000000;1762.00000000000;1798.00000000000;1816.00000000000;1807.00000000000;1865.00000000000;1943.00000000000;2030.00000000000;2153.00000000000;2245.00000000000;2263.00000000000;2425.00000000000;2512.00000000000;2561.00000000000;2533.00000000000;2629.00000000000;2635.00000000000;2667.00000000000;2703.00000000000;2709.00000000000;2696.00000000000;2698.00000000000;2718.00000000000;2710.00000000000;2694.00000000000;2709.00000000000;2693.00000000000;2686.00000000000;2686.00000000000;2667.00000000000;2647.00000000000;2647.00000000000;2637.00000000000;2641.00000000000;2635.00000000000;2643.00000000000;2660.00000000000;2661.00000000000;2657.00000000000;2640.00000000000;2659.00000000000;2676.00000000000;2673.00000000000;2659.00000000000;2670.00000000000;2670.00000000000;2676.00000000000;2677.00000000000;2682.00000000000;2667.00000000000;2656.00000000000;2676.00000000000;2649.00000000000
COMMAND 1 SAMPLE 1
Accel X : 1834.00000000000;1845.00000000000;1832.00000000000;1830.00000000000;1819.00000000000;1811.00000000000;1840.00000000000;1845.00000000000;1825.00000000000;1827.00000000000;1830.00000000000;1813.00000000000;1837.00000000000;1827.00000000000;1823.00000000000;1832.00000000000;1822.00000000000;1821.00000000000;1809.00000000000;1790.00000000000;1795.00000000000;1822.00000000000;1828.00000000000;1821.00000000000;1804.00000000000;1807.00000000000;1802.00000000000;1818.00000000000;1833.00000000000;1827.00000000000;1816.00000000000;1839.00000000000;1830.00000000000;1806.00000000000;1844.00000000000;1824.00000000000;1825.00000000000;1774.00000000000;1755.00000000000;1772.00000000000;1799.00000000000;1893.00000000000;1983.00000000000;2037.00000000000;2204.00000000000;2541.00000000000;2808.00000000000;2984.00000000000;3181.00000000000;3177.00000000000;3150.00000000000;3086.00000000000;2843.00000000000;2531.00000000000;2376.00000000000;2197.00000000000;2022.00000000000;1925.00000000000;1783.00000000000;1716.00000000000;1646.00000000000;1441.00000000000;1237.00000000000;1135.00000000000;894.000000000000;517.000000000000;143.000000000000;18.0000000000000;18.0000000000000;20.0000000000000;21.0000000000000;23.0000000000000;30.0000000000000;398.000000000000;533.000000000000;764.000000000000;942.000000000000;1092.00000000000;1385.00000000000;1681.00000000000;1969.00000000000;2160.00000000000;2087.00000000000;2030.00000000000;2120.00000000000;2307.00000000000;2349.00000000000;2479.00000000000;2929.00000000000;3196.00000000000;3062.00000000000;2674.00000000000;3097.00000000000;3560.00000000000;3788.00000000000;3651.00000000000;3679.00000000000;3561.00000000000;3515.00000000000;3702.00000000000;3333.00000000000;2196.00000000000;2440.00000000000;3063.00000000000;3305.00000000000;3058.00000000000;2525.00000000000;2282.00000000000;2258.00000000000;2086.00000000000;1688.00000000000;1488.00000000000;1537.00000000000;1771.00000000000;2030.00000000000;1992.00000000000;1812.00000000000;1780.00000000000;1741.00000000000;1825.00000000000;1939.00000000000;1953.00000000000;1856.00000000000;1821.00000000000;1854.00000000000;1936.00000000000;1911.00000000000;1895.00000000000;1863.00000000000;1897.00000000000;1898.00000000000;1914.00000000000;1919.00000000000;1867.00000000000;1887.00000000000;1870.00000000000;1898.00000000000;1863.00000000000;1828.00000000000;1853.00000000000;1857.00000000000;1881.00000000000;1878.00000000000;1859.00000000000;1834.00000000000;1855.00000000000;1889.00000000000;1887.00000000000;1875.00000000000;1867.00000000000
Accel Y : 2072.00000000000;2047.00000000000;2042.00000000000;2073.00000000000;2063.00000000000;2042.00000000000;2085.00000000000;2074.00000000000;2045.00000000000;2057.00000000000;2065.00000000000;2056.00000000000;2068.00000000000;2055.00000000000;2052.00000000000;2063.00000000000;2052.00000000000;2079.00000000000;2061.00000000000;2061.00000000000;2043.00000000000;2069.00000000000;2050.00000000000;2074.00000000000;2071.00000000000;2064.00000000000;2068.00000000000;2053.00000000000;2069.00000000000;2067.00000000000;2076.00000000000;2071.00000000000;2065.00000000000;2067.00000000000;2091.00000000000;2084.00000000000;2081.00000000000;2093.00000000000;2118.00000000000;2106.00000000000;2134.00000000000;2135.00000000000;2141.00000000000;2173.00000000000;2208.00000000000;2178.00000000000;2131.00000000000;2104.00000000000;2092.00000000000;2067.00000000000;2071.00000000000;2081.00000000000;2035.00000000000;2011.00000000000;2001.00000000000;1987.00000000000;1961.00000000000;1947.00000000000;1894.00000000000;1907.00000000000;1943.00000000000;1920.00000000000;1909.00000000000;1959.00000000000;2022.00000000000;2023.00000000000;2067.00000000000;2184.00000000000;2278.00000000000;2370.00000000000;2220.00000000000;2114.00000000000;2110.00000000000;2016.00000000000;2026.00000000000;2046.00000000000;1982.00000000000;1962.00000000000;1949.00000000000;1995.00000000000;2099.00000000000;2127.00000000000;2102.00000000000;2071.00000000000;2197.00000000000;2357.00000000000;2383.00000000000;2411.00000000000;2478.00000000000;2345.00000000000;2222.00000000000;1882.00000000000;1898.00000000000;1963.00000000000;1837.00000000000;1894.00000000000;1903.00000000000;1911.00000000000;1945.00000000000;1940.00000000000;1937.00000000000;1956.00000000000;2145.00000000000;2054.00000000000;1995.00000000000;1979.00000000000;1949.00000000000;1981.00000000000;2029.00000000000;2053.00000000000;2056.00000000000;2050.00000000000;2103.00000000000;2088.00000000000;2095.00000000000;2043.00000000000;2039.00000000000;2087.00000000000;2071.00000000000;2104.00000000000;2107.00000000000;2066.00000000000;2099.00000000000;2095.00000000000;2101.00000000000;2095.00000000000;2094.00000000000;2084.00000000000;2055.00000000000;2094.00000000000;2100.00000000000;2068.00000000000;2092.00000000000;2064.00000000000;2064.00000000000;2074.00000000000;2084.00000000000;2059.00000000000;2042.00000000000;2044.00000000000;2059.00000000000;2065.00000000000;2058.00000000000;2052.00000000000;2046.00000000000;2051.00000000000;2064.00000000000;2071.00000000000;2048.00000000000;2076.00000000000
Accel Z : 2653.00000000000;2679.00000000000;2675.00000000000;2672.00000000000;2676.00000000000;2662.00000000000;2671.00000000000;2655.00000000000;2663.00000000000;2658.00000000000;2658.00000000000;2657.00000000000;2656.00000000000;2658.00000000000;2657.00000000000;2679.00000000000;2653.00000000000;2654.00000000000;2668.00000000000;2654.00000000000;2682.00000000000;2658.00000000000;2655.00000000000;2654.00000000000;2666.00000000000;2645.00000000000;2668.00000000000;2683.00000000000;2669.00000000000;2661.00000000000;2665.00000000000;2680.00000000000;2676.00000000000;2673.00000000000;2662.00000000000;2717.00000000000;2726.00000000000;2760.00000000000;2811.00000000000;2856.00000000000;2961.00000000000;3004.00000000000;3133.00000000000;3133.00000000000;3065.00000000000;2991.00000000000;2906.00000000000;2725.00000000000;2619.00000000000;2410.00000000000;2269.00000000000;2154.00000000000;2121.00000000000;1956.00000000000;1881.00000000000;1844.00000000000;1733.00000000000;1682.00000000000;1637.00000000000;1598.00000000000;1634.00000000000;1548.00000000000;1442.00000000000;1474.00000000000;1538.00000000000;1663.00000000000;1871.00000000000;2237.00000000000;2481.00000000000;2296.00000000000;2019.00000000000;2073.00000000000;2026.00000000000;2116.00000000000;2040.00000000000;1910.00000000000;1702.00000000000;1548.00000000000;1613.00000000000;1738.00000000000;1763.00000000000;1661.00000000000;1444.00000000000;1378.00000000000;1524.00000000000;1675.00000000000;1633.00000000000;1564.00000000000;1658.00000000000;1743.00000000000;1642.00000000000;1438.00000000000;1701.00000000000;1816.00000000000;1842.00000000000;1814.00000000000;1841.00000000000;1779.00000000000;1809.00000000000;1951.00000000000;2140.00000000000;2198.00000000000;2210.00000000000;2198.00000000000;2251.00000000000;2234.00000000000;2255.00000000000;2283.00000000000;2328.00000000000;2458.00000000000;2540.00000000000;2574.00000000000;2685.00000000000;2753.00000000000;2727.00000000000;2767.00000000000;2755.00000000000;2722.00000000000;2755.00000000000;2742.00000000000;2770.00000000000;2757.00000000000;2718.00000000000;2697.00000000000;2703.00000000000;2723.00000000000;2692.00000000000;2655.00000000000;2658.00000000000;2649.00000000000;2649.00000000000;2649.00000000000;2661.00000000000;2647.00000000000;2641.00000000000;2662.00000000000;2658.00000000000;2669.00000000000;2649.00000000000;2655.00000000000;2671.00000000000;2673.00000000000;2665.00000000000;2644.00000000000;2646.00000000000;2666.00000000000;2657.00000000000;2686.00000000000;2698.00000000000;2698.00000000000
Gyro X : 1834.00000000000;1845.00000000000;1832.00000000000;1830.00000000000;1819.00000000000;1811.00000000000;1840.00000000000;1845.00000000000;1825.00000000000;1827.00000000000;1830.00000000000;1813.00000000000;1837.00000000000;1827.00000000000;1823.00000000000;1832.00000000000;1822.00000000000;1821.00000000000;1809.00000000000;1790.00000000000;1795.00000000000;1822.00000000000;1828.00000000000;1821.00000000000;1804.00000000000;1807.00000000000;1802.00000000000;1818.00000000000;1833.00000000000;1827.00000000000;1816.00000000000;1839.00000000000;1830.00000000000;1806.00000000000;1844.00000000000;1824.00000000000;1825.00000000000;1774.00000000000;1755.00000000000;1772.00000000000;1799.00000000000;1893.00000000000;1983.00000000000;2037.00000000000;2204.00000000000;2541.00000000000;2808.00000000000;2984.00000000000;3181.00000000000;3177.00000000000;3150.00000000000;3086.00000000000;2843.00000000000;2531.00000000000;2376.00000000000;2197.00000000000;2022.00000000000;1925.00000000000;1783.00000000000;1716.00000000000;1646.00000000000;1441.00000000000;1237.00000000000;1135.00000000000;894.000000000000;517.000000000000;143.000000000000;18.0000000000000;18.0000000000000;20.0000000000000;21.0000000000000;23.0000000000000;30.0000000000000;398.000000000000;533.000000000000;764.000000000000;942.000000000000;1092.00000000000;1385.00000000000;1681.00000000000;1969.00000000000;2160.00000000000;2087.00000000000;2030.00000000000;2120.00000000000;2307.00000000000;2349.00000000000;2479.00000000000;2929.00000000000;3196.00000000000;3062.00000000000;2674.00000000000;3097.00000000000;3560.00000000000;3788.00000000000;3651.00000000000;3679.00000000000;3561.00000000000;3515.00000000000;3702.00000000000;3333.00000000000;2196.00000000000;2440.00000000000;3063.00000000000;3305.00000000000;3058.00000000000;2525.00000000000;2282.00000000000;2258.00000000000;2086.00000000000;1688.00000000000;1488.00000000000;1537.00000000000;1771.00000000000;2030.00000000000;1992.00000000000;1812.00000000000;1780.00000000000;1741.00000000000;1825.00000000000;1939.00000000000;1953.00000000000;1856.00000000000;1821.00000000000;1854.00000000000;1936.00000000000;1911.00000000000;1895.00000000000;1863.00000000000;1897.00000000000;1898.00000000000;1914.00000000000;1919.00000000000;1867.00000000000;1887.00000000000;1870.00000000000;1898.00000000000;1863.00000000000;1828.00000000000;1853.00000000000;1857.00000000000;1881.00000000000;1878.00000000000;1859.00000000000;1834.00000000000;1855.00000000000;1889.00000000000;1887.00000000000;1875.00000000000;1867.00000000000
Gyro Y : 2072.00000000000;2047.00000000000;2042.00000000000;2073.00000000000;2063.00000000000;2042.00000000000;2085.00000000000;2074.00000000000;2045.00000000000;2057.00000000000;2065.00000000000;2056.00000000000;2068.00000000000;2055.00000000000;2052.00000000000;2063.00000000000;2052.00000000000;2079.00000000000;2061.00000000000;2061.00000000000;2043.00000000000;2069.00000000000;2050.00000000000;2074.00000000000;2071.00000000000;2064.00000000000;2068.00000000000;2053.00000000000;2069.00000000000;2067.00000000000;2076.00000000000;2071.00000000000;2065.00000000000;2067.00000000000;2091.00000000000;2084.00000000000;2081.00000000000;2093.00000000000;2118.00000000000;2106.00000000000;2134.00000000000;2135.00000000000;2141.00000000000;2173.00000000000;2208.00000000000;2178.00000000000;2131.00000000000;2104.00000000000;2092.00000000000;2067.00000000000;2071.00000000000;2081.00000000000;2035.00000000000;2011.00000000000;2001.00000000000;1987.00000000000;1961.00000000000;1947.00000000000;1894.00000000000;1907.00000000000;1943.00000000000;1920.00000000000;1909.00000000000;1959.00000000000;2022.00000000000;2023.00000000000;2067.00000000000;2184.00000000000;2278.00000000000;2370.00000000000;2220.00000000000;2114.00000000000;2110.00000000000;2016.00000000000;2026.00000000000;2046.00000000000;1982.00000000000;1962.00000000000;1949.00000000000;1995.00000000000;2099.00000000000;2127.00000000000;2102.00000000000;2071.00000000000;2197.00000000000;2357.00000000000;2383.00000000000;2411.00000000000;2478.00000000000;2345.00000000000;2222.00000000000;1882.00000000000;1898.00000000000;1963.00000000000;1837.00000000000;1894.00000000000;1903.00000000000;1911.00000000000;1945.00000000000;1940.00000000000;1937.00000000000;1956.00000000000;2145.00000000000;2054.00000000000;1995.00000000000;1979.00000000000;1949.00000000000;1981.00000000000;2029.00000000000;2053.00000000000;2056.00000000000;2050.00000000000;2103.00000000000;2088.00000000000;2095.00000000000;2043.00000000000;2039.00000000000;2087.00000000000;2071.00000000000;2104.00000000000;2107.00000000000;2066.00000000000;2099.00000000000;2095.00000000000;2101.00000000000;2095.00000000000;2094.00000000000;2084.00000000000;2055.00000000000;2094.00000000000;2100.00000000000;2068.00000000000;2092.00000000000;2064.00000000000;2064.00000000000;2074.00000000000;2084.00000000000;2059.00000000000;2042.00000000000;2044.00000000000;2059.00000000000;2065.00000000000;2058.00000000000;2052.00000000000;2046.00000000000;2051.00000000000;2064.00000000000;2071.00000000000;2048.00000000000;2076.00000000000
Gyro Z : 2653.00000000000;2679.00000000000;2675.00000000000;2672.00000000000;2676.00000000000;2662.00000000000;2671.00000000000;2655.00000000000;2663.00000000000;2658.00000000000;2658.00000000000;2657.00000000000;2656.00000000000;2658.00000000000;2657.00000000000;2679.00000000000;2653.00000000000;2654.00000000000;2668.00000000000;2654.00000000000;2682.00000000000;2658.00000000000;2655.00000000000;2654.00000000000;2666.00000000000;2645.00000000000;2668.00000000000;2683.00000000000;2669.00000000000;2661.00000000000;2665.00000000000;2680.00000000000;2676.00000000000;2673.00000000000;2662.00000000000;2717.00000000000;2726.00000000000;2760.00000000000;2811.00000000000;2856.00000000000;2961.00000000000;3004.00000000000;3133.00000000000;3133.00000000000;3065.00000000000;2991.00000000000;2906.00000000000;2725.00000000000;2619.00000000000;2410.00000000000;2269.00000000000;2154.00000000000;2121.00000000000;1956.00000000000;1881.00000000000;1844.00000000000;1733.00000000000;1682.00000000000;1637.00000000000;1598.00000000000;1634.00000000000;1548.00000000000;1442.00000000000;1474.00000000000;1538.00000000000;1663.00000000000;1871.00000000000;2237.00000000000;2481.00000000000;2296.00000000000;2019.00000000000;2073.00000000000;2026.00000000000;2116.00000000000;2040.00000000000;1910.00000000000;1702.00000000000;1548.00000000000;1613.00000000000;1738.00000000000;1763.00000000000;1661.00000000000;1444.00000000000;1378.00000000000;1524.00000000000;1675.00000000000;1633.00000000000;1564.00000000000;1658.00000000000;1743.00000000000;1642.00000000000;1438.00000000000;1701.00000000000;1816.00000000000;1842.00000000000;1814.00000000000;1841.00000000000;1779.00000000000;1809.00000000000;1951.00000000000;2140.00000000000;2198.00000000000;2210.00000000000;2198.00000000000;2251.00000000000;2234.00000000000;2255.00000000000;2283.00000000000;2328.00000000000;2458.00000000000;2540.00000000000;2574.00000000000;2685.00000000000;2753.00000000000;2727.00000000000;2767.00000000000;2755.00000000000;2722.00000000000;2755.00000000000;2742.00000000000;2770.00000000000;2757.00000000000;2718.00000000000;2697.00000000000;2703.00000000000;2723.00000000000;2692.00000000000;2655.00000000000;2658.00000000000;2649.00000000000;2649.00000000000;2649.00000000000;2661.00000000000;2647.00000000000;2641.00000000000;2662.00000000000;2658.00000000000;2669.00000000000;2649.00000000000;2655.00000000000;2671.00000000000;2673.00000000000;2665.00000000000;2644.00000000000;2646.00000000000;2666.00000000000;2657.00000000000;2686.00000000000;2698.00000000000;2698.00000000000
COMMAND 1 SAMPLE 1
Accel X : 1835.00000000000;1845.00000000000;1842.00000000000;1830.00000000000;1823.00000000000;1826.00000000000;1828.00000000000;1816.00000000000;1830.00000000000;1823.00000000000;1839.00000000000;1825.00000000000;1803.00000000000;1810.00000000000;1812.00000000000;1838.00000000000;1844.00000000000;1821.00000000000;1820.00000000000;1843.00000000000;1834.00000000000;1845.00000000000;1879.00000000000;1837.00000000000;1850.00000000000;1816.00000000000;1833.00000000000;1831.00000000000;1835.00000000000;1843.00000000000;1825.00000000000;1813.00000000000;1824.00000000000;1827.00000000000;1782.00000000000;1806.00000000000;1823.00000000000;1851.00000000000;1842.00000000000;1867.00000000000;1863.00000000000;1872.00000000000;1920.00000000000;2009.00000000000;2073.00000000000;2126.00000000000;2143.00000000000;2211.00000000000;2413.00000000000;2646.00000000000;2840.00000000000;3083.00000000000;3293.00000000000;3331.00000000000;3220.00000000000;3027.00000000000;2840.00000000000;2727.00000000000;2459.00000000000;2239.00000000000;2088.00000000000;1901.00000000000;1728.00000000000;1572.00000000000;1408.00000000000;1165.00000000000;848.000000000000;350.000000000000;18.0000000000000;18.0000000000000;19.0000000000000;21.0000000000000;21.0000000000000;217.000000000000;671.000000000000;698.000000000000;732.000000000000;896.000000000000;990.000000000000;1068.00000000000;1346.00000000000;1485.00000000000;1614.00000000000;1802.00000000000;2031.00000000000;2065.00000000000;2109.00000000000;2284.00000000000;2321.00000000000;2385.00000000000;2689.00000000000;3382.00000000000;3738.00000000000;2884.00000000000;2193.00000000000;3270.00000000000;3804.00000000000;3700.00000000000;3462.00000000000;3415.00000000000;3430.00000000000;3238.00000000000;2967.00000000000;2849.00000000000;2935.00000000000;2959.00000000000;2926.00000000000;2913.00000000000;2827.00000000000;2808.00000000000;2728.00000000000;2579.00000000000;2443.00000000000;2197.00000000000;2041.00000000000;1869.00000000000;1791.00000000000;1787.00000000000;1900.00000000000;1951.00000000000;1958.00000000000;1927.00000000000;1907.00000000000;1923.00000000000;1854.00000000000;1810.00000000000;1784.00000000000;1782.00000000000;1855.00000000000;1929.00000000000;1871.00000000000;1806.00000000000;1785.00000000000;1775.00000000000;1824.00000000000;1810.00000000000;1778.00000000000;1783.00000000000;1804.00000000000;1817.00000000000;1801.00000000000;1780.00000000000;1810.00000000000;1809.00000000000;1785.00000000000;1792.00000000000;1798.00000000000;1796.00000000000;1807.00000000000;1813.00000000000
Accel Y : 2022.00000000000;2021.00000000000;2030.00000000000;2022.00000000000;2024.00000000000;2034.00000000000;2015.00000000000;2039.00000000000;1999.00000000000;2016.00000000000;2019.00000000000;2018.00000000000;2018.00000000000;2016.00000000000;2012.00000000000;2017.00000000000;2025.00000000000;2010.00000000000;2036.00000000000;2029.00000000000;2018.00000000000;2022.00000000000;2018.00000000000;2014.00000000000;2020.00000000000;2017.00000000000;2026.00000000000;2031.00000000000;2036.00000000000;2038.00000000000;2017.00000000000;2030.00000000000;2032.00000000000;2025.00000000000;2035.00000000000;2029.00000000000;1990.00000000000;1989.00000000000;2014.00000000000;1998.00000000000;2016.00000000000;2023.00000000000;2035.00000000000;2010.00000000000;1985.00000000000;2031.00000000000;2000.00000000000;2004.00000000000;1983.00000000000;1950.00000000000;1895.00000000000;1942.00000000000;1899.00000000000;1799.00000000000;1747.00000000000;1772.00000000000;1786.00000000000;1777.00000000000;1740.00000000000;1709.00000000000;1677.00000000000;1681.00000000000;1763.00000000000;1902.00000000000;1951.00000000000;2082.00000000000;2167.00000000000;2271.00000000000;2202.00000000000;2198.00000000000;2329.00000000000;1989.00000000000;2022.00000000000;1973.00000000000;1830.00000000000;1811.00000000000;1779.00000000000;1737.00000000000;1738.00000000000;1732.00000000000;1754.00000000000;1733.00000000000;1694.00000000000;1797.00000000000;1897.00000000000;1893.00000000000;1980.00000000000;2205.00000000000;2248.00000000000;2213.00000000000;2190.00000000000;2377.00000000000;2340.00000000000;2071.00000000000;1740.00000000000;1863.00000000000;1921.00000000000;1749.00000000000;1896.00000000000;1893.00000000000;1892.00000000000;1924.00000000000;1967.00000000000;1985.00000000000;1963.00000000000;1963.00000000000;1974.00000000000;1930.00000000000;1939.00000000000;1947.00000000000;1958.00000000000;1964.00000000000;1942.00000000000;1962.00000000000;1945.00000000000;1958.00000000000;1966.00000000000;1969.00000000000;1945.00000000000;1947.00000000000;1964.00000000000;1979.00000000000;1973.00000000000;1975.00000000000;1966.00000000000;1986.00000000000;1971.00000000000;1962.00000000000;1966.00000000000;1963.00000000000;1975.00000000000;1974.00000000000;1972.00000000000;1956.00000000000;1994.00000000000;1991.00000000000;1979.00000000000;1966.00000000000;1960.00000000000;1976.00000000000;1988.00000000000;1977.00000000000;1967.00000000000;1982.00000000000;1968.00000000000;1995.00000000000;1964.00000000000;1969.00000000000;1941.00000000000;1983.00000000000
Accel Z : 2667.00000000000;2670.00000000000;2684.00000000000;2660.00000000000;2644.00000000000;2653.00000000000;2674.00000000000;2663.00000000000;2661.00000000000;2691.00000000000;2666.00000000000;2682.00000000000;2653.00000000000;2653.00000000000;2658.00000000000;2657.00000000000;2659.00000000000;2670.00000000000;2681.00000000000;2671.00000000000;2674.00000000000;2666.00000000000;2660.00000000000;2682.00000000000;2683.00000000000;2680.00000000000;2677.00000000000;2674.00000000000;2681.00000000000;2688.00000000000;2672.00000000000;2687.00000000000;2691.00000000000;2675.00000000000;2657.00000000000;2703.00000000000;2696.00000000000;2709.00000000000;2721.00000000000;2735.00000000000;2741.00000000000;2795.00000000000;2778.00000000000;2827.00000000000;2826.00000000000;2828.00000000000;2769.00000000000;2735.00000000000;2639.00000000000;2535.00000000000;2432.00000000000;2272.00000000000;2165.00000000000;2065.00000000000;2026.00000000000;1962.00000000000;1778.00000000000;1830.00000000000;1769.00000000000;1668.00000000000;1654.00000000000;1660.00000000000;1560.00000000000;1527.00000000000;1617.00000000000;1628.00000000000;1729.00000000000;2000.00000000000;2202.00000000000;2214.00000000000;1834.00000000000;1850.00000000000;1819.00000000000;1882.00000000000;1934.00000000000;1858.00000000000;1804.00000000000;1787.00000000000;1758.00000000000;1760.00000000000;1733.00000000000;1690.00000000000;1572.00000000000;1572.00000000000;1497.00000000000;1507.00000000000;1583.00000000000;1663.00000000000;1560.00000000000;1421.00000000000;1594.00000000000;1947.00000000000;2200.00000000000;1547.00000000000;1332.00000000000;1919.00000000000;2007.00000000000;2040.00000000000;1986.00000000000;1925.00000000000;1880.00000000000;1993.00000000000;2080.00000000000;2164.00000000000;2208.00000000000;2301.00000000000;2245.00000000000;2213.00000000000;2235.00000000000;2270.00000000000;2322.00000000000;2338.00000000000;2394.00000000000;2433.00000000000;2534.00000000000;2585.00000000000;2604.00000000000;2638.00000000000;2637.00000000000;2673.00000000000;2712.00000000000;2673.00000000000;2675.00000000000;2662.00000000000;2654.00000000000;2666.00000000000;2676.00000000000;2660.00000000000;2649.00000000000;2725.00000000000;2662.00000000000;2663.00000000000;2647.00000000000;2650.00000000000;2659.00000000000;2667.00000000000;2663.00000000000;2662.00000000000;2658.00000000000;2656.00000000000;2660.00000000000;2652.00000000000;2668.00000000000;2662.00000000000;2646.00000000000;2653.00000000000;2662.00000000000;2651.00000000000;2647.00000000000;2654.00000000000
Gyro X : 1835.00000000000;1845.00000000000;1842.00000000000;1830.00000000000;1823.00000000000;1826.00000000000;1828.00000000000;1816.00000000000;1830.00000000000;1823.00000000000;1839.00000000000;1825.00000000000;1803.00000000000;1810.00000000000;1812.00000000000;1838.00000000000;1844.00000000000;1821.00000000000;1820.00000000000;1843.00000000000;1834.00000000000;1845.00000000000;1879.00000000000;1837.00000000000;1850.00000000000;1816.00000000000;1833.00000000000;1831.00000000000;1835.00000000000;1843.00000000000;1825.00000000000;1813.00000000000;1824.00000000000;1827.00000000000;1782.00000000000;1806.00000000000;1823.00000000000;1851.00000000000;1842.00000000000;1867.00000000000;1863.00000000000;1872.00000000000;1920.00000000000;2009.00000000000;2073.00000000000;2126.00000000000;2143.00000000000;2211.00000000000;2413.00000000000;2646.00000000000;2840.00000000000;3083.00000000000;3293.00000000000;3331.00000000000;3220.00000000000;3027.00000000000;2840.00000000000;2727.00000000000;2459.00000000000;2239.00000000000;2088.00000000000;1901.00000000000;1728.00000000000;1572.00000000000;1408.00000000000;1165.00000000000;848.000000000000;350.000000000000;18.0000000000000;18.0000000000000;19.0000000000000;21.0000000000000;21.0000000000000;217.000000000000;671.000000000000;698.000000000000;732.000000000000;896.000000000000;990.000000000000;1068.00000000000;1346.00000000000;1485.00000000000;1614.00000000000;1802.00000000000;2031.00000000000;2065.00000000000;2109.00000000000;2284.00000000000;2321.00000000000;2385.00000000000;2689.00000000000;3382.00000000000;3738.00000000000;2884.00000000000;2193.00000000000;3270.00000000000;3804.00000000000;3700.00000000000;3462.00000000000;3415.00000000000;3430.00000000000;3238.00000000000;2967.00000000000;2849.00000000000;2935.00000000000;2959.00000000000;2926.00000000000;2913.00000000000;2827.00000000000;2808.00000000000;2728.00000000000;2579.00000000000;2443.00000000000;2197.00000000000;2041.00000000000;1869.00000000000;1791.00000000000;1787.00000000000;1900.00000000000;1951.00000000000;1958.00000000000;1927.00000000000;1907.00000000000;1923.00000000000;1854.00000000000;1810.00000000000;1784.00000000000;1782.00000000000;1855.00000000000;1929.00000000000;1871.00000000000;1806.00000000000;1785.00000000000;1775.00000000000;1824.00000000000;1810.00000000000;1778.00000000000;1783.00000000000;1804.00000000000;1817.00000000000;1801.00000000000;1780.00000000000;1810.00000000000;1809.00000000000;1785.00000000000;1792.00000000000;1798.00000000000;1796.00000000000;1807.00000000000;1813.00000000000
Gyro Y : 2022.00000000000;2021.00000000000;2030.00000000000;2022.00000000000;2024.00000000000;2034.00000000000;2015.00000000000;2039.00000000000;1999.00000000000;2016.00000000000;2019.00000000000;2018.00000000000;2018.00000000000;2016.00000000000;2012.00000000000;2017.00000000000;2025.00000000000;2010.00000000000;2036.00000000000;2029.00000000000;2018.00000000000;2022.00000000000;2018.00000000000;2014.00000000000;2020.00000000000;2017.00000000000;2026.00000000000;2031.00000000000;2036.00000000000;2038.00000000000;2017.00000000000;2030.00000000000;2032.00000000000;2025.00000000000;2035.00000000000;2029.00000000000;1990.00000000000;1989.00000000000;2014.00000000000;1998.00000000000;2016.00000000000;2023.00000000000;2035.00000000000;2010.00000000000;1985.00000000000;2031.00000000000;2000.00000000000;2004.00000000000;1983.00000000000;1950.00000000000;1895.00000000000;1942.00000000000;1899.00000000000;1799.00000000000;1747.00000000000;1772.00000000000;1786.00000000000;1777.00000000000;1740.00000000000;1709.00000000000;1677.00000000000;1681.00000000000;1763.00000000000;1902.00000000000;1951.00000000000;2082.00000000000;2167.00000000000;2271.00000000000;2202.00000000000;2198.00000000000;2329.00000000000;1989.00000000000;2022.00000000000;1973.00000000000;1830.00000000000;1811.00000000000;1779.00000000000;1737.00000000000;1738.00000000000;1732.00000000000;1754.00000000000;1733.00000000000;1694.00000000000;1797.00000000000;1897.00000000000;1893.00000000000;1980.00000000000;2205.00000000000;2248.00000000000;2213.00000000000;2190.00000000000;2377.00000000000;2340.00000000000;2071.00000000000;1740.00000000000;1863.00000000000;1921.00000000000;1749.00000000000;1896.00000000000;1893.00000000000;1892.00000000000;1924.00000000000;1967.00000000000;1985.00000000000;1963.00000000000;1963.00000000000;1974.00000000000;1930.00000000000;1939.00000000000;1947.00000000000;1958.00000000000;1964.00000000000;1942.00000000000;1962.00000000000;1945.00000000000;1958.00000000000;1966.00000000000;1969.00000000000;1945.00000000000;1947.00000000000;1964.00000000000;1979.00000000000;1973.00000000000;1975.00000000000;1966.00000000000;1986.00000000000;1971.00000000000;1962.00000000000;1966.00000000000;1963.00000000000;1975.00000000000;1974.00000000000;1972.00000000000;1956.00000000000;1994.00000000000;1991.00000000000;1979.00000000000;1966.00000000000;1960.00000000000;1976.00000000000;1988.00000000000;1977.00000000000;1967.00000000000;1982.00000000000;1968.00000000000;1995.00000000000;1964.00000000000;1969.00000000000;1941.00000000000;1983.00000000000
Gyro Z : 2667.00000000000;2670.00000000000;2684.00000000000;2660.00000000000;2644.00000000000;2653.00000000000;2674.00000000000;2663.00000000000;2661.00000000000;2691.00000000000;2666.00000000000;2682.00000000000;2653.00000000000;2653.00000000000;2658.00000000000;2657.00000000000;2659.00000000000;2670.00000000000;2681.00000000000;2671.00000000000;2674.00000000000;2666.00000000000;2660.00000000000;2682.00000000000;2683.00000000000;2680.00000000000;2677.00000000000;2674.00000000000;2681.00000000000;2688.00000000000;2672.00000000000;2687.00000000000;2691.00000000000;2675.00000000000;2657.00000000000;2703.00000000000;2696.00000000000;2709.00000000000;2721.00000000000;2735.00000000000;2741.00000000000;2795.00000000000;2778.00000000000;2827.00000000000;2826.00000000000;2828.00000000000;2769.00000000000;2735.00000000000;2639.00000000000;2535.00000000000;2432.00000000000;2272.00000000000;2165.00000000000;2065.00000000000;2026.00000000000;1962.00000000000;1778.00000000000;1830.00000000000;1769.00000000000;1668.00000000000;1654.00000000000;1660.00000000000;1560.00000000000;1527.00000000000;1617.00000000000;1628.00000000000;1729.00000000000;2000.00000000000;2202.00000000000;2214.00000000000;1834.00000000000;1850.00000000000;1819.00000000000;1882.00000000000;1934.00000000000;1858.00000000000;1804.00000000000;1787.00000000000;1758.00000000000;1760.00000000000;1733.00000000000;1690.00000000000;1572.00000000000;1572.00000000000;1497.00000000000;1507.00000000000;1583.00000000000;1663.00000000000;1560.00000000000;1421.00000000000;1594.00000000000;1947.00000000000;2200.00000000000;1547.00000000000;1332.00000000000;1919.00000000000;2007.00000000000;2040.00000000000;1986.00000000000;1925.00000000000;1880.00000000000;1993.00000000000;2080.00000000000;2164.00000000000;2208.00000000000;2301.00000000000;2245.00000000000;2213.00000000000;2235.00000000000;2270.00000000000;2322.00000000000;2338.00000000000;2394.00000000000;2433.00000000000;2534.00000000000;2585.00000000000;2604.00000000000;2638.00000000000;2637.00000000000;2673.00000000000;2712.00000000000;2673.00000000000;2675.00000000000;2662.00000000000;2654.00000000000;2666.00000000000;2676.00000000000;2660.00000000000;2649.00000000000;2725.00000000000;2662.00000000000;2663.00000000000;2647.00000000000;2650.00000000000;2659.00000000000;2667.00000000000;2663.00000000000;2662.00000000000;2658.00000000000;2656.00000000000;2660.00000000000;2652.00000000000;2668.00000000000;2662.00000000000;2646.00000000000;2653.00000000000;2662.00000000000;2651.00000000000;2647.00000000000;2654.00000000000
COMMAND 1 SAMPLE 1
Accel X : 1846.00000000000;1835.00000000000;1824.00000000000;1869.00000000000;1855.00000000000;1856.00000000000;1855.00000000000;1850.00000000000;1850.00000000000;1872.00000000000;1872.00000000000;1863.00000000000;1845.00000000000;1842.00000000000;1849.00000000000;1835.00000000000;1863.00000000000;1850.00000000000;1848.00000000000;1838.00000000000;1816.00000000000;1850.00000000000;1864.00000000000;1863.00000000000;1837.00000000000;1858.00000000000;1848.00000000000;1865.00000000000;1859.00000000000;1862.00000000000;1835.00000000000;1836.00000000000;1862.00000000000;1882.00000000000;1830.00000000000;1789.00000000000;1749.00000000000;1806.00000000000;1833.00000000000;1884.00000000000;1893.00000000000;1842.00000000000;1946.00000000000;2132.00000000000;2242.00000000000;2275.00000000000;2365.00000000000;2553.00000000000;2981.00000000000;3204.00000000000;3288.00000000000;3247.00000000000;3126.00000000000;3061.00000000000;2897.00000000000;2698.00000000000;2495.00000000000;2394.00000000000;2213.00000000000;2071.00000000000;1844.00000000000;1632.00000000000;1518.00000000000;1438.00000000000;1281.00000000000;934.000000000000;374.000000000000;17.0000000000000;18.0000000000000;18.0000000000000;20.0000000000000;20.0000000000000;34.0000000000000;363.000000000000;504.000000000000;587.000000000000;704.000000000000;1020.00000000000;1199.00000000000;1422.00000000000;1689.00000000000;1827.00000000000;1936.00000000000;2134.00000000000;2203.00000000000;2163.00000000000;2154.00000000000;2215.00000000000;2489.00000000000;3027.00000000000;3566.00000000000;3402.00000000000;2415.00000000000;2559.00000000000;3477.00000000000;3704.00000000000;3679.00000000000;3615.00000000000;3482.00000000000;3478.00000000000;3373.00000000000;3172.00000000000;2905.00000000000;2683.00000000000;2411.00000000000;1960.00000000000;1569.00000000000;1558.00000000000;1644.00000000000;1724.00000000000;1758.00000000000;1831.00000000000;1762.00000000000;1699.00000000000;1680.00000000000;1697.00000000000;1694.00000000000;1683.00000000000;1707.00000000000;1715.00000000000;1749.00000000000;1755.00000000000;1759.00000000000;1728.00000000000;1750.00000000000;1720.00000000000;1747.00000000000;1773.00000000000;1755.00000000000;1739.00000000000;1719.00000000000;1756.00000000000;1745.00000000000;1765.00000000000;1762.00000000000;1739.00000000000;1753.00000000000;1743.00000000000;1747.00000000000;1773.00000000000;1765.00000000000;1770.00000000000;1756.00000000000;1722.00000000000;1778.00000000000;1745.00000000000;1768.00000000000;1776.00000000000;1778.00000000000;1771.00000000000
Accel Y : 2029.00000000000;2024.00000000000;2025.00000000000;2032.00000000000;2015.00000000000;2033.00000000000;2041.00000000000;2025.00000000000;2022.00000000000;2028.00000000000;2025.00000000000;2032.00000000000;2022.00000000000;2025.00000000000;2024.00000000000;2034.00000000000;2015.00000000000;2023.00000000000;2034.00000000000;2039.00000000000;2041.00000000000;2022.00000000000;2018.00000000000;2039.00000000000;2029.00000000000;2034.00000000000;2006.00000000000;2023.00000000000;2011.00000000000;2011.00000000000;2015.00000000000;2053.00000000000;2036.00000000000;2026.00000000000;2043.00000000000;2037.00000000000;2049.00000000000;2034.00000000000;2029.00000000000;2047.00000000000;2096.00000000000;2034.00000000000;1997.00000000000;2054.00000000000;2076.00000000000;2086.00000000000;2041.00000000000;2043.00000000000;2017.00000000000;1911.00000000000;1815.00000000000;1864.00000000000;1880.00000000000;1898.00000000000;1830.00000000000;1786.00000000000;1765.00000000000;1713.00000000000;1729.00000000000;1788.00000000000;1813.00000000000;1839.00000000000;1868.00000000000;1981.00000000000;2074.00000000000;2077.00000000000;2215.00000000000;2245.00000000000;2281.00000000000;2324.00000000000;2119.00000000000;2019.00000000000;2015.00000000000;1904.00000000000;1877.00000000000;1776.00000000000;1817.00000000000;1856.00000000000;1795.00000000000;1778.00000000000;1856.00000000000;1879.00000000000;1918.00000000000;1962.00000000000;1975.00000000000;2075.00000000000;2167.00000000000;2258.00000000000;2429.00000000000;2548.00000000000;2548.00000000000;2278.00000000000;1734.00000000000;1779.00000000000;2045.00000000000;1845.00000000000;1864.00000000000;1928.00000000000;1919.00000000000;1923.00000000000;1921.00000000000;1999.00000000000;2011.00000000000;2046.00000000000;2073.00000000000;1995.00000000000;1931.00000000000;1941.00000000000;1997.00000000000;1983.00000000000;1956.00000000000;1934.00000000000;1935.00000000000;1900.00000000000;1896.00000000000;1914.00000000000;1923.00000000000;1916.00000000000;1897.00000000000;1901.00000000000;1899.00000000000;1901.00000000000;1908.00000000000;1926.00000000000;1897.00000000000;1904.00000000000;1905.00000000000;1950.00000000000;1927.00000000000;1930.00000000000;1944.00000000000;1949.00000000000;1926.00000000000;1949.00000000000;1919.00000000000;1943.00000000000;1938.00000000000;1922.00000000000;1923.00000000000;1959.00000000000;1938.00000000000;1938.00000000000;1941.00000000000;1958.00000000000;1943.00000000000;1949.00000000000;1947.00000000000;1915.00000000000;1946.00000000000;1933.00000000000
Accel Z : 2647.00000000000;2662.00000000000;2668.00000000000;2670.00000000000;2659.00000000000;2653.00000000000;2679.00000000000;2664.00000000000;2654.00000000000;2666.00000000000;2667.00000000000;2663.00000000000;2678.00000000000;2666.00000000000;2659.00000000000;2674.00000000000;2684.00000000000;2670.00000000000;2674.00000000000;2662.00000000000;2661.00000000000;2655.00000000000;2669.00000000000;2665.00000000000;2662.00000000000;2660.00000000000;2681.00000000000;2670.00000000000;2702.00000000000;2687.00000000000;2684.00000000000;2688.00000000000;2701.00000000000;2691.00000000000;2699.00000000000;2680.00000000000;2695.00000000000;2728.00000000000;2798.00000000000;2820.00000000000;2827.00000000000;2761.00000000000;2790.00000000000;2796.00000000000;2870.00000000000;2765.00000000000;2661.00000000000;2629.00000000000;2408.00000000000;2316.00000000000;2305.00000000000;2184.00000000000;2086.00000000000;2013.00000000000;1982.00000000000;1958.00000000000;1866.00000000000;1803.00000000000;1724.00000000000;1703.00000000000;1615.00000000000;1530.00000000000;1472.00000000000;1478.00000000000;1541.00000000000;1591.00000000000;1732.00000000000;2077.00000000000;2258.00000000000;2034.00000000000;1793.00000000000;1776.00000000000;1744.00000000000;1811.00000000000;1809.00000000000;1675.00000000000;1581.00000000000;1579.00000000000;1578.00000000000;1550.00000000000;1552.00000000000;1620.00000000000;1551.00000000000;1455.00000000000;1521.00000000000;1575.00000000000;1551.00000000000;1624.00000000000;1682.00000000000;1940.00000000000;2111.00000000000;1821.00000000000;1528.00000000000;1852.00000000000;2172.00000000000;2171.00000000000;2162.00000000000;2153.00000000000;2105.00000000000;2168.00000000000;2281.00000000000;2364.00000000000;2438.00000000000;2526.00000000000;2543.00000000000;2562.00000000000;2602.00000000000;2677.00000000000;2711.00000000000;2662.00000000000;2602.00000000000;2585.00000000000;2581.00000000000;2582.00000000000;2606.00000000000;2580.00000000000;2609.00000000000;2602.00000000000;2624.00000000000;2634.00000000000;2640.00000000000;2646.00000000000;2620.00000000000;2612.00000000000;2627.00000000000;2638.00000000000;2630.00000000000;2625.00000000000;2605.00000000000;2618.00000000000;2619.00000000000;2635.00000000000;2627.00000000000;2654.00000000000;2637.00000000000;2641.00000000000;2656.00000000000;2649.00000000000;2667.00000000000;2672.00000000000;2652.00000000000;2648.00000000000;2648.00000000000;2654.00000000000;2660.00000000000;2668.00000000000;2660.00000000000;2661.00000000000;2669.00000000000;2685.00000000000
Gyro X : 1846.00000000000;1835.00000000000;1824.00000000000;1869.00000000000;1855.00000000000;1856.00000000000;1855.00000000000;1850.00000000000;1850.00000000000;1872.00000000000;1872.00000000000;1863.00000000000;1845.00000000000;1842.00000000000;1849.00000000000;1835.00000000000;1863.00000000000;1850.00000000000;1848.00000000000;1838.00000000000;1816.00000000000;1850.00000000000;1864.00000000000;1863.00000000000;1837.00000000000;1858.00000000000;1848.00000000000;1865.00000000000;1859.00000000000;1862.00000000000;1835.00000000000;1836.00000000000;1862.00000000000;1882.00000000000;1830.00000000000;1789.00000000000;1749.00000000000;1806.00000000000;1833.00000000000;1884.00000000000;1893.00000000000;1842.00000000000;1946.00000000000;2132.00000000000;2242.00000000000;2275.00000000000;2365.00000000000;2553.00000000000;2981.00000000000;3204.00000000000;3288.00000000000;3247.00000000000;3126.00000000000;3061.00000000000;2897.00000000000;2698.00000000000;2495.00000000000;2394.00000000000;2213.00000000000;2071.00000000000;1844.00000000000;1632.00000000000;1518.00000000000;1438.00000000000;1281.00000000000;934.000000000000;374.000000000000;17.0000000000000;18.0000000000000;18.0000000000000;20.0000000000000;20.0000000000000;34.0000000000000;363.000000000000;504.000000000000;587.000000000000;704.000000000000;1020.00000000000;1199.00000000000;1422.00000000000;1689.00000000000;1827.00000000000;1936.00000000000;2134.00000000000;2203.00000000000;2163.00000000000;2154.00000000000;2215.00000000000;2489.00000000000;3027.00000000000;3566.00000000000;3402.00000000000;2415.00000000000;2559.00000000000;3477.00000000000;3704.00000000000;3679.00000000000;3615.00000000000;3482.00000000000;3478.00000000000;3373.00000000000;3172.00000000000;2905.00000000000;2683.00000000000;2411.00000000000;1960.00000000000;1569.00000000000;1558.00000000000;1644.00000000000;1724.00000000000;1758.00000000000;1831.00000000000;1762.00000000000;1699.00000000000;1680.00000000000;1697.00000000000;1694.00000000000;1683.00000000000;1707.00000000000;1715.00000000000;1749.00000000000;1755.00000000000;1759.00000000000;1728.00000000000;1750.00000000000;1720.00000000000;1747.00000000000;1773.00000000000;1755.00000000000;1739.00000000000;1719.00000000000;1756.00000000000;1745.00000000000;1765.00000000000;1762.00000000000;1739.00000000000;1753.00000000000;1743.00000000000;1747.00000000000;1773.00000000000;1765.00000000000;1770.00000000000;1756.00000000000;1722.00000000000;1778.00000000000;1745.00000000000;1768.00000000000;1776.00000000000;1778.00000000000;1771.00000000000
