COMMAND 4 SAMPLE 1
Accel X : 2830.00000000000;2795.00000000000;2799.00000000000;2837.00000000000;2843.00000000000;2838.00000000000;2860.00000000000;2871.00000000000;2874.00000000000;2874.00000000000;2887.00000000000;2873.00000000000;2868.00000000000;2892.00000000000;2866.00000000000;2849.00000000000;2868.00000000000;2879.00000000000;2883.00000000000;2866.00000000000;2859.00000000000;2830.00000000000;2833.00000000000;2881.00000000000;2887.00000000000;2879.00000000000;2862.00000000000;2850.00000000000;2856.00000000000;2852.00000000000;2822.00000000000;2853.00000000000;2800.00000000000;2833.00000000000;2807.00000000000;2802.00000000000;2786.00000000000;2778.00000000000;2739.00000000000;2739.00000000000;2722.00000000000;2724.00000000000;2634.00000000000;2599.00000000000;2557.00000000000;2549.00000000000;2655.00000000000;2610.00000000000;2454.00000000000;2425.00000000000;2309.00000000000;2103.00000000000;2049.00000000000;2115.00000000000;2044.00000000000;2215.00000000000;2229.00000000000;2081.00000000000;2112.00000000000;2054.00000000000;2004.00000000000;1788.00000000000;1682.00000000000;1862.00000000000;1954.00000000000;1869.00000000000;1793.00000000000;1933.00000000000;1820.00000000000;1824.00000000000;1742.00000000000;1737.00000000000;1773.00000000000;1886.00000000000;1921.00000000000;1734.00000000000;1706.00000000000;1758.00000000000;1824.00000000000;1865.00000000000;1853.00000000000;1832.00000000000;1878.00000000000;1892.00000000000;1876.00000000000;1907.00000000000;1921.00000000000;1981.00000000000;1995.00000000000;1871.00000000000;1925.00000000000;2028.00000000000;2084.00000000000;1989.00000000000;2090.00000000000;2104.00000000000;2428.00000000000;2553.00000000000;2651.00000000000;2539.00000000000;2469.00000000000;2520.00000000000;2592.00000000000;2382.00000000000;2306.00000000000;2259.00000000000;2325.00000000000;2341.00000000000;2428.00000000000;2438.00000000000;2560.00000000000;2646.00000000000;2689.00000000000;2744.00000000000;2800.00000000000;2883.00000000000;2862.00000000000;2874.00000000000;2895.00000000000;2888.00000000000;2921.00000000000;2937.00000000000;2905.00000000000;2849.00000000000;2860.00000000000;2820.00000000000;2810.00000000000;2855.00000000000;2811.00000000000;2855.00000000000;2835.00000000000;2813.00000000000;2811.00000000000;2823.00000000000;2818.00000000000;2854.00000000000;2819.00000000000;2862.00000000000;2864.00000000000;2861.00000000000;2853.00000000000;2852.00000000000;2850.00000000000;2870.00000000000;2857.00000000000;2846.00000000000;2855.00000000000;2847.00000000000;2851.00000000000;2869.00000000000
Accel Y : 1983.00000000000;1955.00000000000;1953.00000000000;1955.00000000000;1946.00000000000;1954.00000000000;1985.00000000000;1990.00000000000;1965.00000000000;1962.00000000000;1965.00000000000;1972.00000000000;1976.00000000000;1970.00000000000;1966.00000000000;1966.00000000000;1977.00000000000;1949.00000000000;1952.00000000000;1984.00000000000;1956.00000000000;1974.00000000000;1957.00000000000;1961.00000000000;1968.00000000000;1952.00000000000;1972.00000000000;1953.00000000000;1947.00000000000;1944.00000000000;1918.00000000000;1936.00000000000;1911.00000000000;1922.00000000000;1929.00000000000;1907.00000000000;1929.00000000000;1912.00000000000;1930.00000000000;1915.00000000000;1924.00000000000;1919.00000000000;1935.00000000000;1940.00000000000;1943.00000000000;1987.00000000000;1970.00000000000;1979.00000000000;2004.00000000000;2087.00000000000;2165.00000000000;2229.00000000000;2416.00000000000;2669.00000000000;3007.00000000000;3296.00000000000;3529.00000000000;3651.00000000000;3671.00000000000;3701.00000000000;3646.00000000000;3447.00000000000;3399.00000000000;3450.00000000000;3437.00000000000;3435.00000000000;3415.00000000000;3400.00000000000;3322.00000000000;3284.00000000000;3239.00000000000;3185.00000000000;3121.00000000000;3055.00000000000;3078.00000000000;3039.00000000000;3027.00000000000;3044.00000000000;3068.00000000000;3116.00000000000;3141.00000000000;3157.00000000000;3217.00000000000;3260.00000000000;3325.00000000000;3363.00000000000;3372.00000000000;3452.00000000000;3523.00000000000;3517.00000000000;3493.00000000000;3542.00000000000;3551.00000000000;3526.00000000000;3437.00000000000;3280.00000000000;3090.00000000000;2975.00000000000;2832.00000000000;2724.00000000000;2560.00000000000;2415.00000000000;2319.00000000000;2223.00000000000;2127.00000000000;1997.00000000000;1902.00000000000;1841.00000000000;1784.00000000000;1777.00000000000;1751.00000000000;1712.00000000000;1712.00000000000;1706.00000000000;1733.00000000000;1720.00000000000;1739.00000000000;1731.00000000000;1763.00000000000;1771.00000000000;1806.00000000000;1798.00000000000;1827.00000000000;1810.00000000000;1808.00000000000;1813.00000000000;1825.00000000000;1837.00000000000;1832.00000000000;1826.00000000000;1822.00000000000;1835.00000000000;1835.00000000000;1838.00000000000;1852.00000000000;1843.00000000000;1843.00000000000;1855.00000000000;1851.00000000000;1851.00000000000;1843.00000000000;1836.00000000000;1859.00000000000;1848.00000000000;1875.00000000000;1877.00000000000;1891.00000000000;1921.00000000000;1888.00000000000;1882.00000000000
Accel Z : 1879.00000000000;1875.00000000000;1873.00000000000;1839.00000000000;1855.00000000000;1836.00000000000;1867.00000000000;1844.00000000000;1867.00000000000;1854.00000000000;1883.00000000000;1877.00000000000;1864.00000000000;1862.00000000000;1872.00000000000;1879.00000000000;1875.00000000000;1860.00000000000;1850.00000000000;1886.00000000000;1861.00000000000;1885.00000000000;1855.00000000000;1897.00000000000;1886.00000000000;1877.00000000000;1879.00000000000;1893.00000000000;1888.00000000000;1879.00000000000;1867.00000000000;1871.00000000000;1877.00000000000;1898.00000000000;1893.00000000000;1893.00000000000;1871.00000000000;1880.00000000000;1871.00000000000;1858.00000000000;1861.00000000000;1847.00000000000;1877.00000000000;1875.00000000000;1852.00000000000;1861.00000000000;1873.00000000000;1919.00000000000;1894.00000000000;1834.00000000000;1890.00000000000;1975.00000000000;1932.00000000000;1939.00000000000;1895.00000000000;1990.00000000000;2010.00000000000;1968.00000000000;1863.00000000000;1615.00000000000;1592.00000000000;1497.00000000000;1512.00000000000;1640.00000000000;1732.00000000000;1739.00000000000;1890.00000000000;1939.00000000000;1925.00000000000;1957.00000000000;2019.00000000000;2086.00000000000;2137.00000000000;2218.00000000000;2243.00000000000;2146.00000000000;2119.00000000000;2095.00000000000;2059.00000000000;2052.00000000000;1970.00000000000;1929.00000000000;1910.00000000000;1867.00000000000;1897.00000000000;1877.00000000000;1832.00000000000;1856.00000000000;1867.00000000000;1757.00000000000;1768.00000000000;1803.00000000000;1862.00000000000;1922.00000000000;1867.00000000000;1736.00000000000;1660.00000000000;1721.00000000000;1842.00000000000;1739.00000000000;1754.00000000000;1702.00000000000;1741.00000000000;1809.00000000000;1787.00000000000;1785.00000000000;1775.00000000000;1770.00000000000;1813.00000000000;1874.00000000000;1885.00000000000;1844.00000000000;1793.00000000000;1800.00000000000;1867.00000000000;1881.00000000000;1844.00000000000;1810.00000000000;1787.00000000000;1774.00000000000;1766.00000000000;1783.00000000000;1772.00000000000;1769.00000000000;1787.00000000000;1792.00000000000;1795.00000000000;1796.00000000000;1797.00000000000;1793.00000000000;1799.00000000000;1768.00000000000;1787.00000000000;1788.00000000000;1785.00000000000;1784.00000000000;1802.00000000000;1816.00000000000;1795.00000000000;1810.00000000000;1836.00000000000;1810.00000000000;1806.00000000000;1809.00000000000;1835.00000000000;1866.00000000000;1838.00000000000;1831.00000000000;1855.00000000000;1860.00000000000
Gyro X : 2830.00000000000;2795.00000000000;2799.00000000000;2837.00000000000;2843.00000000000;2838.00000000000;2860.00000000000;2871.00000000000;2874.00000000000;2874.00000000000;2887.00000000000;2873.00000000000;2868.00000000000;2892.00000000000;2866.00000000000;2849.00000000000;2868.00000000000;2879.00000000000;2883.00000000000;2866.00000000000;2859.00000000000;2830.00000000000;2833.00000000000;2881.00000000000;2887.00000000000;2879.00000000000;2862.00000000000;2850.00000000000;2856.00000000000;2852.00000000000;2822.00000000000;2853.00000000000;2800.00000000000;2833.00000000000;2807.00000000000;2802.00000000000;2786.00000000000;2778.00000000000;2739.00000000000;2739.00000000000;2722.00000000000;2724.00000000000;2634.00000000000;2599.00000000000;2557.00000000000;2549.00000000000;2655.00000000000;2610.00000000000;2454.00000000000;2425.00000000000;2309.00000000000;2103.00000000000;2049.00000000000;2115.00000000000;2044.00000000000;2215.00000000000;2229.00000000000;2081.00000000000;2112.00000000000;2054.00000000000;2004.00000000000;1788.00000000000;1682.00000000000;1862.00000000000;1954.00000000000;1869.00000000000;1793.00000000000;1933.00000000000;1820.00000000000;1824.00000000000;1742.00000000000;1737.00000000000;1773.00000000000;1886.00000000000;1921.00000000000;1734.00000000000;1706.00000000000;1758.00000000000;1824.00000000000;1865.00000000000;1853.00000000000;1832.00000000000;1878.00000000000;1892.00000000000;1876.00000000000;1907.00000000000;1921.00000000000;1981.00000000000;1995.00000000000;1871.00000000000;1925.00000000000;2028.00000000000;2084.00000000000;1989.00000000000;2090.00000000000;2104.00000000000;2428.00000000000;2553.00000000000;2651.00000000000;2539.00000000000;2469.00000000000;2520.00000000000;2592.00000000000;2382.00000000000;2306.00000000000;2259.00000000000;2325.00000000000;2341.00000000000;2428.00000000000;2438.00000000000;2560.00000000000;2646.00000000000;2689.00000000000;2744.00000000000;2800.00000000000;2883.00000000000;2862.00000000000;2874.00000000000;2895.00000000000;2888.00000000000;2921.00000000000;2937.00000000000;2905.00000000000;2849.00000000000;2860.00000000000;2820.00000000000;2810.00000000000;2855.00000000000;2811.00000000000;2855.00000000000;2835.00000000000;2813.00000000000;2811.00000000000;2823.00000000000;2818.00000000000;2854.00000000000;2819.00000000000;2862.00000000000;2864.00000000000;2861.00000000000;2853.00000000000;2852.00000000000;2850.00000000000;2870.00000000000;2857.00000000000;2846.00000000000;2855.00000000000;2847.00000000000;2851.00000000000;2869.00000000000
Gyro Y : 1983.00000000000;1955.00000000000;1953.00000000000;1955.00000000000;1946.00000000000;1954.00000000000;1985.00000000000;1990.00000000000;1965.00000000000;1962.00000000000;1965.00000000000;1972.00000000000;1976.00000000000;1970.00000000000;1966.00000000000;1966.00000000000;1977.00000000000;1949.00000000000;1952.00000000000;1984.00000000000;1956.00000000000;1974.00000000000;1957.00000000000;1961.00000000000;1968.00000000000;1952.00000000000;1972.00000000000;1953.00000000000;1947.00000000000;1944.00000000000;1918.00000000000;1936.00000000000;1911.00000000000;1922.00000000000;1929.00000000000;1907.00000000000;1929.00000000000;1912.00000000000;1930.00000000000;1915.00000000000;1924.00000000000;1919.00000000000;1935.00000000000;1940.00000000000;1943.00000000000;1987.00000000000;1970.00000000000;1979.00000000000;2004.00000000000;2087.00000000000;2165.00000000000;2229.00000000000;2416.00000000000;2669.00000000000;3007.00000000000;3296.00000000000;3529.00000000000;3651.00000000000;3671.00000000000;3701.00000000000;3646.00000000000;3447.00000000000;3399.00000000000;3450.00000000000;3437.00000000000;3435.00000000000;3415.00000000000;3400.00000000000;3322.00000000000;3284.00000000000;3239.00000000000;3185.00000000000;3121.00000000000;3055.00000000000;3078.00000000000;3039.00000000000;3027.00000000000;3044.00000000000;3068.00000000000;3116.00000000000;3141.00000000000;3157.00000000000;3217.00000000000;3260.00000000000;3325.00000000000;3363.00000000000;3372.00000000000;3452.00000000000;3523.00000000000;3517.00000000000;3493.00000000000;3542.00000000000;3551.00000000000;3526.00000000000;3437.00000000000;3280.00000000000;3090.00000000000;2975.00000000000;2832.00000000000;2724.00000000000;2560.00000000000;2415.00000000000;2319.00000000000;2223.00000000000;2127.00000000000;1997.00000000000;1902.00000000000;1841.00000000000;1784.00000000000;1777.00000000000;1751.00000000000;1712.00000000000;1712.00000000000;1706.00000000000;1733.00000000000;1720.00000000000;1739.00000000000;1731.00000000000;1763.00000000000;1771.00000000000;1806.00000000000;1798.00000000000;1827.00000000000;1810.00000000000;1808.00000000000;1813.00000000000;1825.00000000000;1837.00000000000;1832.00000000000;1826.00000000000;1822.00000000000;1835.00000000000;1835.00000000000;1838.00000000000;1852.00000000000;1843.00000000000;1843.00000000000;1855.00000000000;1851.00000000000;1851.00000000000;1843.00000000000;1836.00000000000;1859.00000000000;1848.00000000000;1875.00000000000;1877.00000000000;1891.00000000000;1921.00000000000;1888.00000000000;1882.00000000000
Gyro Z : 1879.00000000000;1875.00000000000;1873.00000000000;1839.00000000000;1855.00000000000;1836.00000000000;1867.00000000000;1844.00000000000;1867.00000000000;1854.00000000000;1883.00000000000;1877.00000000000;1864.00000000000;1862.00000000000;1872.00000000000;1879.00000000000;1875.00000000000;1860.00000000000;1850.00000000000;1886.00000000000;1861.00000000000;1885.00000000000;1855.00000000000;1897.00000000000;1886.00000000000;1877.00000000000;1879.00000000000;1893.00000000000;1888.00000000000;1879.00000000000;1867.00000000000;1871.00000000000;1877.00000000000;1898.00000000000;1893.00000000000;1893.00000000000;1871.00000000000;1880.00000000000;1871.00000000000;1858.00000000000;1861.00000000000;1847.00000000000;1877.00000000000;1875.00000000000;1852.00000000000;1861.00000000000;1873.00000000000;1919.00000000000;1894.00000000000;1834.00000000000;1890.00000000000;1975.00000000000;1932.00000000000;1939.00000000000;1895.00000000000;1990.00000000000;2010.00000000000;1968.00000000000;1863.00000000000;1615.00000000000;1592.00000000000;1497.00000000000;1512.00000000000;1640.00000000000;1732.00000000000;1739.00000000000;1890.00000000000;1939.00000000000;1925.00000000000;1957.00000000000;2019.00000000000;2086.00000000000;2137.00000000000;2218.00000000000;2243.00000000000;2146.00000000000;2119.00000000000;2095.00000000000;2059.00000000000;2052.00000000000;1970.00000000000;1929.00000000000;1910.00000000000;1867.00000000000;1897.00000000000;1877.00000000000;1832.00000000000;1856.00000000000;1867.00000000000;1757.00000000000;1768.00000000000;1803.00000000000;1862.00000000000;1922.00000000000;1867.00000000000;1736.00000000000;1660.00000000000;1721.00000000000;1842.00000000000;1739.00000000000;1754.00000000000;1702.00000000000;1741.00000000000;1809.00000000000;1787.00000000000;1785.00000000000;1775.00000000000;1770.00000000000;1813.00000000000;1874.00000000000;1885.00000000000;1844.00000000000;1793.00000000000;1800.00000000000;1867.00000000000;1881.00000000000;1844.00000000000;1810.00000000000;1787.00000000000;1774.00000000000;1766.00000000000;1783.00000000000;1772.00000000000;1769.00000000000;1787.00000000000;1792.00000000000;1795.00000000000;1796.00000000000;1797.00000000000;1793.00000000000;1799.00000000000;1768.00000000000;1787.00000000000;1788.00000000000;1785.00000000000;1784.00000000000;1802.00000000000;1816.00000000000;1795.00000000000;1810.00000000000;1836.00000000000;1810.00000000000;1806.00000000000;1809.00000000000;1835.00000000000;1866.00000000000;1838.00000000000;1831.00000000000;1855.00000000000;1860.00000000000
