COMMAND 2 SAMPLE 1
Accel X : 2839.00000000000;2835.00000000000;2860.00000000000;2865.00000000000;2858.00000000000;2839.00000000000;2873.00000000000;2819.00000000000;2853.00000000000;2837.00000000000;2851.00000000000;2824.00000000000;2845.00000000000;2842.00000000000;2840.00000000000;2855.00000000000;2873.00000000000;2863.00000000000;2851.00000000000;2877.00000000000;2855.00000000000;2876.00000000000;2848.00000000000;2867.00000000000;2867.00000000000;2858.00000000000;2858.00000000000;2857.00000000000;2858.00000000000;2853.00000000000;2848.00000000000;2868.00000000000;2862.00000000000;2866.00000000000;2875.00000000000;2864.00000000000;2865.00000000000;2835.00000000000;2843.00000000000;2857.00000000000;2851.00000000000;2871.00000000000;2864.00000000000;2854.00000000000;2882.00000000000;2869.00000000000;2884.00000000000;2914.00000000000;2919.00000000000;2916.00000000000;2973.00000000000;3028.00000000000;3038.00000000000;2950.00000000000;3172.00000000000;3133.00000000000;3300.00000000000;3125.00000000000;3168.00000000000;3105.00000000000;3229.00000000000;3201.00000000000;3097.00000000000;2965.00000000000;3008.00000000000;2881.00000000000;2786.00000000000;2684.00000000000;2713.00000000000;2638.00000000000;2495.00000000000;2467.00000000000;2363.00000000000;2243.00000000000;2324.00000000000;2287.00000000000;2331.00000000000;2367.00000000000;2339.00000000000;2389.00000000000;2623.00000000000;2717.00000000000;2769.00000000000;2784.00000000000;2800.00000000000;2909.00000000000;2986.00000000000;2946.00000000000;2920.00000000000;2961.00000000000;2931.00000000000;2879.00000000000;2823.00000000000;2788.00000000000;2863.00000000000;2829.00000000000;2804.00000000000;2824.00000000000;2944.00000000000;2931.00000000000;2913.00000000000;2934.00000000000;3077.00000000000;2869.00000000000;2607.00000000000;2882.00000000000;3175.00000000000;3301.00000000000;3111.00000000000;2906.00000000000;3070.00000000000;3112.00000000000;3021.00000000000;2968.00000000000;2865.00000000000;2902.00000000000;2946.00000000000;2951.00000000000;2836.00000000000;2954.00000000000;2896.00000000000;2894.00000000000;2880.00000000000;2874.00000000000;2865.00000000000;2864.00000000000;2901.00000000000;2952.00000000000;2927.00000000000;2882.00000000000;2874.00000000000;2891.00000000000;2875.00000000000;2886.00000000000;2868.00000000000;2861.00000000000;2855.00000000000;2871.00000000000;2883.00000000000;2874.00000000000;2880.00000000000;2864.00000000000;2851.00000000000;2854.00000000000;2876.00000000000;2871.00000000000;2855.00000000000;2877.00000000000;2878.00000000000;2891.00000000000
Accel Y : 2123.00000000000;2136.00000000000;2135.00000000000;2134.00000000000;2132.00000000000;2124.00000000000;2115.00000000000;2110.00000000000;2119.00000000000;2115.00000000000;2119.00000000000;2123.00000000000;2100.00000000000;2119.00000000000;2117.00000000000;2117.00000000000;2119.00000000000;2143.00000000000;2124.00000000000;2127.00000000000;2119.00000000000;2144.00000000000;2112.00000000000;2153.00000000000;2133.00000000000;2127.00000000000;2119.00000000000;2133.00000000000;2154.00000000000;2120.00000000000;2129.00000000000;2109.00000000000;2134.00000000000;2144.00000000000;2144.00000000000;2120.00000000000;2127.00000000000;2126.00000000000;2139.00000000000;2134.00000000000;2118.00000000000;2133.00000000000;2140.00000000000;2137.00000000000;2128.00000000000;2150.00000000000;2170.00000000000;2203.00000000000;2225.00000000000;2229.00000000000;2276.00000000000;2310.00000000000;2375.00000000000;2429.00000000000;2529.00000000000;2612.00000000000;2687.00000000000;2748.00000000000;2821.00000000000;2857.00000000000;2962.00000000000;2985.00000000000;2948.00000000000;2994.00000000000;3030.00000000000;3036.00000000000;3075.00000000000;3056.00000000000;2980.00000000000;2940.00000000000;2823.00000000000;2669.00000000000;2480.00000000000;2286.00000000000;2193.00000000000;2096.00000000000;2033.00000000000;1939.00000000000;1861.00000000000;1846.00000000000;1790.00000000000;1766.00000000000;1772.00000000000;1802.00000000000;1775.00000000000;1797.00000000000;1863.00000000000;1971.00000000000;1980.00000000000;1899.00000000000;2020.00000000000;2198.00000000000;2246.00000000000;2193.00000000000;2201.00000000000;2271.00000000000;2349.00000000000;2437.00000000000;2459.00000000000;2518.00000000000;2511.00000000000;2490.00000000000;2626.00000000000;2623.00000000000;2532.00000000000;2569.00000000000;2675.00000000000;2653.00000000000;2595.00000000000;2524.00000000000;2484.00000000000;2422.00000000000;2315.00000000000;2302.00000000000;2246.00000000000;2230.00000000000;2186.00000000000;2143.00000000000;2034.00000000000;2085.00000000000;2047.00000000000;2043.00000000000;2047.00000000000;2030.00000000000;2024.00000000000;2034.00000000000;2036.00000000000;2027.00000000000;2018.00000000000;2006.00000000000;1989.00000000000;1994.00000000000;1992.00000000000;1995.00000000000;1991.00000000000;1994.00000000000;2008.00000000000;1989.00000000000;2020.00000000000;2015.00000000000;2003.00000000000;2026.00000000000;2017.00000000000;2035.00000000000;1995.00000000000;2025.00000000000;2031.00000000000;2019.00000000000;2031.00000000000;2032.00000000000
Accel Z : 1892.00000000000;1891.00000000000;1895.00000000000;1889.00000000000;1895.00000000000;1881.00000000000;1872.00000000000;1880.00000000000;1877.00000000000;1875.00000000000;1889.00000000000;1885.00000000000;1866.00000000000;1878.00000000000;1893.00000000000;1865.00000000000;1854.00000000000;1876.00000000000;1877.00000000000;1876.00000000000;1884.00000000000;1877.00000000000;1877.00000000000;1866.00000000000;1898.00000000000;1874.00000000000;1893.00000000000;1878.00000000000;1868.00000000000;1889.00000000000;1888.00000000000;1876.00000000000;1869.00000000000;1885.00000000000;1883.00000000000;1895.00000000000;1903.00000000000;1898.00000000000;1893.00000000000;1874.00000000000;1887.00000000000;1891.00000000000;1914.00000000000;1898.00000000000;1930.00000000000;2006.00000000000;2053.00000000000;2128.00000000000;2263.00000000000;2316.00000000000;2413.00000000000;2480.00000000000;2524.00000000000;2542.00000000000;2587.00000000000;2638.00000000000;2639.00000000000;2513.00000000000;2447.00000000000;2408.00000000000;2346.00000000000;2223.00000000000;2070.00000000000;1992.00000000000;1884.00000000000;1697.00000000000;1472.00000000000;1322.00000000000;1241.00000000000;1115.00000000000;935.000000000000;781.000000000000;693.000000000000;621.000000000000;574.000000000000;510.000000000000;502.000000000000;443.000000000000;529.000000000000;581.000000000000;636.000000000000;666.000000000000;684.000000000000;725.000000000000;759.000000000000;752.000000000000;784.000000000000;830.000000000000;842.000000000000;925.000000000000;960.000000000000;1029.00000000000;1037.00000000000;1046.00000000000;1221.00000000000;1214.00000000000;1333.00000000000;1315.00000000000;1330.00000000000;1470.00000000000;1611.00000000000;1689.00000000000;1761.00000000000;1797.00000000000;1747.00000000000;1984.00000000000;2242.00000000000;2192.00000000000;2116.00000000000;2230.00000000000;2418.00000000000;2390.00000000000;2342.00000000000;2342.00000000000;2296.00000000000;2277.00000000000;2224.00000000000;2127.00000000000;2042.00000000000;2062.00000000000;2022.00000000000;1935.00000000000;1925.00000000000;1877.00000000000;1874.00000000000;1857.00000000000;1813.00000000000;1798.00000000000;1777.00000000000;1775.00000000000;1767.00000000000;1739.00000000000;1751.00000000000;1762.00000000000;1740.00000000000;1754.00000000000;1748.00000000000;1737.00000000000;1735.00000000000;1761.00000000000;1755.00000000000;1753.00000000000;1768.00000000000;1765.00000000000;1772.00000000000;1757.00000000000;1770.00000000000;1760.00000000000;1779.00000000000;1780.00000000000
Gyro X : 2839.00000000000;2835.00000000000;2860.00000000000;2865.00000000000;2858.00000000000;2839.00000000000;2873.00000000000;2819.00000000000;2853.00000000000;2837.00000000000;2851.00000000000;2824.00000000000;2845.00000000000;2842.00000000000;2840.00000000000;2855.00000000000;2873.00000000000;2863.00000000000;2851.00000000000;2877.00000000000;2855.00000000000;2876.00000000000;2848.00000000000;2867.00000000000;2867.00000000000;2858.00000000000;2858.00000000000;2857.00000000000;2858.00000000000;2853.00000000000;2848.00000000000;2868.00000000000;2862.00000000000;2866.00000000000;2875.00000000000;2864.00000000000;2865.00000000000;2835.00000000000;2843.00000000000;2857.00000000000;2851.00000000000;2871.00000000000;2864.00000000000;2854.00000000000;2882.00000000000;2869.00000000000;2884.00000000000;2914.00000000000;2919.00000000000;2916.00000000000;2973.00000000000;3028.00000000000;3038.00000000000;2950.00000000000;3172.00000000000;3133.00000000000;3300.00000000000;3125.00000000000;3168.00000000000;3105.00000000000;3229.00000000000;3201.00000000000;3097.00000000000;2965.00000000000;3008.00000000000;2881.00000000000;2786.00000000000;2684.00000000000;2713.00000000000;2638.00000000000;2495.00000000000;2467.00000000000;2363.00000000000;2243.00000000000;2324.00000000000;2287.00000000000;2331.00000000000;2367.00000000000;2339.00000000000;2389.00000000000;2623.00000000000;2717.00000000000;2769.00000000000;2784.00000000000;2800.00000000000;2909.00000000000;2986.00000000000;2946.00000000000;2920.00000000000;2961.00000000000;2931.00000000000;2879.00000000000;2823.00000000000;2788.00000000000;2863.00000000000;2829.00000000000;2804.00000000000;2824.00000000000;2944.00000000000;2931.00000000000;2913.00000000000;2934.00000000000;3077.00000000000;2869.00000000000;2607.00000000000;2882.00000000000;3175.00000000000;3301.00000000000;3111.00000000000;2906.00000000000;3070.00000000000;3112.00000000000;3021.00000000000;2968.00000000000;2865.00000000000;2902.00000000000;2946.00000000000;2951.00000000000;2836.00000000000;2954.00000000000;2896.00000000000;2894.00000000000;2880.00000000000;2874.00000000000;2865.00000000000;2864.00000000000;2901.00000000000;2952.00000000000;2927.00000000000;2882.00000000000;2874.00000000000;2891.00000000000;2875.00000000000;2886.00000000000;2868.00000000000;2861.00000000000;2855.00000000000;2871.00000000000;2883.00000000000;2874.00000000000;2880.00000000000;2864.00000000000;2851.00000000000;2854.00000000000;2876.00000000000;2871.00000000000;2855.00000000000;2877.00000000000;2878.00000000000;2891.00000000000
Gyro Y : 2123.00000000000;2136.00000000000;2135.00000000000;2134.00000000000;2132.00000000000;2124.00000000000;2115.00000000000;2110.00000000000;2119.00000000000;2115.00000000000;2119.00000000000;2123.00000000000;2100.00000000000;2119.00000000000;2117.00000000000;2117.00000000000;2119.00000000000;2143.00000000000;2124.00000000000;2127.00000000000;2119.00000000000;2144.00000000000;2112.00000000000;2153.00000000000;2133.00000000000;2127.00000000000;2119.00000000000;2133.00000000000;2154.00000000000;2120.00000000000;2129.00000000000;2109.00000000000;2134.00000000000;2144.00000000000;2144.00000000000;2120.00000000000;2127.00000000000;2126.00000000000;2139.00000000000;2134.00000000000;2118.00000000000;2133.00000000000;2140.00000000000;2137.00000000000;2128.00000000000;2150.00000000000;2170.00000000000;2203.00000000000;2225.00000000000;2229.00000000000;2276.00000000000;2310.00000000000;2375.00000000000;2429.00000000000;2529.00000000000;2612.00000000000;2687.00000000000;2748.00000000000;2821.00000000000;2857.00000000000;2962.00000000000;2985.00000000000;2948.00000000000;2994.00000000000;3030.00000000000;3036.00000000000;3075.00000000000;3056.00000000000;2980.00000000000;2940.00000000000;2823.00000000000;2669.00000000000;2480.00000000000;2286.00000000000;2193.00000000000;2096.00000000000;2033.00000000000;1939.00000000000;1861.00000000000;1846.00000000000;1790.00000000000;1766.00000000000;1772.00000000000;1802.00000000000;1775.00000000000;1797.00000000000;1863.00000000000;1971.00000000000;1980.00000000000;1899.00000000000;2020.00000000000;2198.00000000000;2246.00000000000;2193.00000000000;2201.00000000000;2271.00000000000;2349.00000000000;2437.00000000000;2459.00000000000;2518.00000000000;2511.00000000000;2490.00000000000;2626.00000000000;2623.00000000000;2532.00000000000;2569.00000000000;2675.00000000000;2653.00000000000;2595.00000000000;2524.00000000000;2484.00000000000;2422.00000000000;2315.00000000000;2302.00000000000;2246.00000000000;2230.00000000000;2186.00000000000;2143.00000000000;2034.00000000000;2085.00000000000;2047.00000000000;2043.00000000000;2047.00000000000;2030.00000000000;2024.00000000000;2034.00000000000;2036.00000000000;2027.00000000000;2018.00000000000;2006.00000000000;1989.00000000000;1994.00000000000;1992.00000000000;1995.00000000000;1991.00000000000;1994.00000000000;2008.00000000000;1989.00000000000;2020.00000000000;2015.00000000000;2003.00000000000;2026.00000000000;2017.00000000000;2035.00000000000;1995.00000000000;2025.00000000000;2031.00000000000;2019.00000000000;2031.00000000000;2032.00000000000
Gyro Z : 1892.00000000000;1891.00000000000;1895.00000000000;1889.00000000000;1895.00000000000;1881.00000000000;1872.00000000000;1880.00000000000;1877.00000000000;1875.00000000000;1889.00000000000;1885.00000000000;1866.00000000000;1878.00000000000;1893.00000000000;1865.00000000000;1854.00000000000;1876.00000000000;1877.00000000000;1876.00000000000;1884.00000000000;1877.00000000000;1877.00000000000;1866.00000000000;1898.00000000000;1874.00000000000;1893.00000000000;1878.00000000000;1868.00000000000;1889.00000000000;1888.00000000000;1876.00000000000;1869.00000000000;1885.00000000000;1883.00000000000;1895.00000000000;1903.00000000000;1898.00000000000;1893.00000000000;1874.00000000000;1887.00000000000;1891.00000000000;1914.00000000000;1898.00000000000;1930.00000000000;2006.00000000000;2053.00000000000;2128.00000000000;2263.00000000000;2316.00000000000;2413.00000000000;2480.00000000000;2524.00000000000;2542.00000000000;2587.00000000000;2638.00000000000;2639.00000000000;2513.00000000000;2447.00000000000;2408.00000000000;2346.00000000000;2223.00000000000;2070.00000000000;1992.00000000000;1884.00000000000;1697.00000000000;1472.00000000000;1322.00000000000;1241.00000000000;1115.00000000000;935.000000000000;781.000000000000;693.000000000000;621.000000000000;574.000000000000;510.000000000000;502.000000000000;443.000000000000;529.000000000000;581.000000000000;636.000000000000;666.000000000000;684.000000000000;725.000000000000;759.000000000000;752.000000000000;784.000000000000;830.000000000000;842.000000000000;925.000000000000;960.000000000000;1029.00000000000;1037.00000000000;1046.00000000000;1221.00000000000;1214.00000000000;1333.00000000000;1315.00000000000;1330.00000000000;1470.00000000000;1611.00000000000;1689.00000000000;1761.00000000000;1797.00000000000;1747.00000000000;1984.00000000000;2242.00000000000;2192.00000000000;2116.00000000000;2230.00000000000;2418.00000000000;2390.00000000000;2342.00000000000;2342.00000000000;2296.00000000000;2277.00000000000;2224.00000000000;2127.00000000000;2042.00000000000;2062.00000000000;2022.00000000000;1935.00000000000;1925.00000000000;1877.00000000000;1874.00000000000;1857.00000000000;1813.00000000000;1798.00000000000;1777.00000000000;1775.00000000000;1767.00000000000;1739.00000000000;1751.00000000000;1762.00000000000;1740.00000000000;1754.00000000000;1748.00000000000;1737.00000000000;1735.00000000000;1761.00000000000;1755.00000000000;1753.00000000000;1768.00000000000;1765.00000000000;1772.00000000000;1757.00000000000;1770.00000000000;1760.00000000000;1779.00000000000;1780.00000000000
