COMMAND 6 SAMPLE 1
Accel X : 2840.00000000000;2830.00000000000;2841.00000000000;2845.00000000000;2848.00000000000;2850.00000000000;2854.00000000000;2852.00000000000;2852.00000000000;2852.00000000000;2846.00000000000;2855.00000000000;2862.00000000000;2856.00000000000;2878.00000000000;2848.00000000000;2855.00000000000;2853.00000000000;2867.00000000000;2872.00000000000;2851.00000000000;2854.00000000000;2880.00000000000;2844.00000000000;2847.00000000000;2868.00000000000;2858.00000000000;2877.00000000000;2870.00000000000;2859.00000000000;2844.00000000000;2845.00000000000;2843.00000000000;2849.00000000000;2875.00000000000;2868.00000000000;2851.00000000000;2896.00000000000;3067.00000000000;3215.00000000000;3298.00000000000;3187.00000000000;2950.00000000000;2493.00000000000;1770.00000000000;1669.00000000000;1906.00000000000;1972.00000000000;2151.00000000000;2027.00000000000;1770.00000000000;1777.00000000000;1941.00000000000;1967.00000000000;1777.00000000000;1796.00000000000;1867.00000000000;1844.00000000000;1810.00000000000;1682.00000000000;1593.00000000000;1635.00000000000;1723.00000000000;2000.00000000000;2319.00000000000;2732.00000000000;3302.00000000000;3492.00000000000;3398.00000000000;3270.00000000000;3133.00000000000;2828.00000000000;2780.00000000000;2849.00000000000;2851.00000000000;2849.00000000000;2869.00000000000;2833.00000000000;2851.00000000000;2875.00000000000;2897.00000000000;2877.00000000000;2793.00000000000;2861.00000000000;2886.00000000000;2905.00000000000;2900.00000000000;2910.00000000000;2871.00000000000;2853.00000000000;2871.00000000000;2914.00000000000;2895.00000000000;2889.00000000000;2882.00000000000;2852.00000000000;2869.00000000000;2890.00000000000;2897.00000000000;2889.00000000000;2873.00000000000;2885.00000000000;2844.00000000000;2879.00000000000;2881.00000000000;2884.00000000000;2895.00000000000;2876.00000000000;2874.00000000000;2879.00000000000;2873.00000000000;2887.00000000000;2880.00000000000;2880.00000000000;2874.00000000000;2891.00000000000;2896.00000000000;2864.00000000000;2882.00000000000;2867.00000000000;2870.00000000000;2875.00000000000;2882.00000000000;2896.00000000000;2881.00000000000;2860.00000000000;2893.00000000000;2869.00000000000;2908.00000000000;2878.00000000000;2894.00000000000;2886.00000000000;2881.00000000000;2875.00000000000;2888.00000000000;2880.00000000000;2885.00000000000;2888.00000000000;2880.00000000000;2892.00000000000;2895.00000000000;2872.00000000000;2884.00000000000;2887.00000000000;2902.00000000000;2899.00000000000;2872.00000000000;2893.00000000000;2874.00000000000;2896.00000000000
Accel Y : 2101.00000000000;2094.00000000000;2113.00000000000;2097.00000000000;2110.00000000000;2104.00000000000;2099.00000000000;2099.00000000000;2107.00000000000;2101.00000000000;2081.00000000000;2107.00000000000;2103.00000000000;2106.00000000000;2102.00000000000;2101.00000000000;2091.00000000000;2104.00000000000;2106.00000000000;2117.00000000000;2077.00000000000;2104.00000000000;2106.00000000000;2115.00000000000;2105.00000000000;2089.00000000000;2108.00000000000;2107.00000000000;2101.00000000000;2105.00000000000;2103.00000000000;2090.00000000000;2104.00000000000;2111.00000000000;2095.00000000000;2100.00000000000;2111.00000000000;2116.00000000000;2101.00000000000;2117.00000000000;2141.00000000000;2134.00000000000;2110.00000000000;2039.00000000000;2005.00000000000;2119.00000000000;2219.00000000000;2247.00000000000;2304.00000000000;2261.00000000000;2267.00000000000;2210.00000000000;2207.00000000000;2250.00000000000;2262.00000000000;2305.00000000000;2319.00000000000;2324.00000000000;2319.00000000000;2339.00000000000;2331.00000000000;2297.00000000000;2240.00000000000;2238.00000000000;2247.00000000000;2251.00000000000;2205.00000000000;2152.00000000000;2133.00000000000;2076.00000000000;2096.00000000000;2109.00000000000;2073.00000000000;2083.00000000000;2066.00000000000;2079.00000000000;2070.00000000000;2079.00000000000;2065.00000000000;2079.00000000000;2077.00000000000;2079.00000000000;2052.00000000000;2057.00000000000;2050.00000000000;2088.00000000000;2060.00000000000;2076.00000000000;2075.00000000000;2085.00000000000;2062.00000000000;2082.00000000000;2057.00000000000;2075.00000000000;2055.00000000000;2062.00000000000;2071.00000000000;2086.00000000000;2070.00000000000;2079.00000000000;2083.00000000000;2063.00000000000;2058.00000000000;2079.00000000000;2063.00000000000;2075.00000000000;2067.00000000000;2060.00000000000;2073.00000000000;2079.00000000000;2083.00000000000;2067.00000000000;2091.00000000000;2091.00000000000;2062.00000000000;2073.00000000000;2083.00000000000;2071.00000000000;2085.00000000000;2071.00000000000;2063.00000000000;2077.00000000000;2071.00000000000;2091.00000000000;2076.00000000000;2079.00000000000;2062.00000000000;2069.00000000000;2095.00000000000;2062.00000000000;2087.00000000000;2079.00000000000;2057.00000000000;2096.00000000000;2077.00000000000;2087.00000000000;2081.00000000000;2073.00000000000;2080.00000000000;2095.00000000000;2062.00000000000;2042.00000000000;2066.00000000000;2081.00000000000;2119.00000000000;2073.00000000000;2076.00000000000;2085.00000000000;2085.00000000000;2051.00000000000
Accel Z : 1906.00000000000;1898.00000000000;1927.00000000000;1928.00000000000;1931.00000000000;1907.00000000000;1903.00000000000;1922.00000000000;1920.00000000000;1926.00000000000;1912.00000000000;1906.00000000000;1910.00000000000;1936.00000000000;1933.00000000000;1931.00000000000;1916.00000000000;1911.00000000000;1930.00000000000;1906.00000000000;1907.00000000000;1904.00000000000;1894.00000000000;1907.00000000000;1901.00000000000;1900.00000000000;1917.00000000000;1903.00000000000;1922.00000000000;1897.00000000000;1907.00000000000;1935.00000000000;1906.00000000000;1883.00000000000;1913.00000000000;1889.00000000000;1906.00000000000;1904.00000000000;1904.00000000000;1965.00000000000;2036.00000000000;2050.00000000000;2016.00000000000;1972.00000000000;2128.00000000000;2424.00000000000;2547.00000000000;2582.00000000000;2666.00000000000;2647.00000000000;2639.00000000000;2631.00000000000;2618.00000000000;2645.00000000000;2640.00000000000;2647.00000000000;2656.00000000000;2703.00000000000;2683.00000000000;2606.00000000000;2567.00000000000;2663.00000000000;2644.00000000000;2367.00000000000;1919.00000000000;1474.00000000000;1475.00000000000;1682.00000000000;1584.00000000000;1586.00000000000;1647.00000000000;1645.00000000000;1567.00000000000;1557.00000000000;1565.00000000000;1573.00000000000;1637.00000000000;1620.00000000000;1607.00000000000;1606.00000000000;1621.00000000000;1638.00000000000;1639.00000000000;1671.00000000000;1657.00000000000;1666.00000000000;1634.00000000000;1676.00000000000;1673.00000000000;1674.00000000000;1696.00000000000;1692.00000000000;1666.00000000000;1678.00000000000;1667.00000000000;1686.00000000000;1657.00000000000;1671.00000000000;1648.00000000000;1671.00000000000;1697.00000000000;1673.00000000000;1677.00000000000;1682.00000000000;1690.00000000000;1671.00000000000;1687.00000000000;1709.00000000000;1674.00000000000;1692.00000000000;1709.00000000000;1657.00000000000;1668.00000000000;1671.00000000000;1681.00000000000;1708.00000000000;1667.00000000000;1683.00000000000;1676.00000000000;1656.00000000000;1707.00000000000;1694.00000000000;1691.00000000000;1687.00000000000;1677.00000000000;1692.00000000000;1691.00000000000;1685.00000000000;1713.00000000000;1686.00000000000;1684.00000000000;1693.00000000000;1667.00000000000;1684.00000000000;1671.00000000000;1678.00000000000;1661.00000000000;1703.00000000000;1658.00000000000;1675.00000000000;1669.00000000000;1686.00000000000;1668.00000000000;1665.00000000000;1686.00000000000;1680.00000000000;1690.00000000000;1693.00000000000;1681.00000000000;1679.00000000000
Gyro X : 2840.00000000000;2830.00000000000;2841.00000000000;2845.00000000000;2848.00000000000;2850.00000000000;2854.00000000000;2852.00000000000;2852.00000000000;2852.00000000000;2846.00000000000;2855.00000000000;2862.00000000000;2856.00000000000;2878.00000000000;2848.00000000000;2855.00000000000;2853.00000000000;2867.00000000000;2872.00000000000;2851.00000000000;2854.00000000000;2880.00000000000;2844.00000000000;2847.00000000000;2868.00000000000;2858.00000000000;2877.00000000000;2870.00000000000;2859.00000000000;2844.00000000000;2845.00000000000;2843.00000000000;2849.00000000000;2875.00000000000;2868.00000000000;2851.00000000000;2896.00000000000;3067.00000000000;3215.00000000000;3298.00000000000;3187.00000000000;2950.00000000000;2493.00000000000;1770.00000000000;1669.00000000000;1906.00000000000;1972.00000000000;2151.00000000000;2027.00000000000;1770.00000000000;1777.00000000000;1941.00000000000;1967.00000000000;1777.00000000000;1796.00000000000;1867.00000000000;1844.00000000000;1810.00000000000;1682.00000000000;1593.00000000000;1635.00000000000;1723.00000000000;2000.00000000000;2319.00000000000;2732.00000000000;3302.00000000000;3492.00000000000;3398.00000000000;3270.00000000000;3133.00000000000;2828.00000000000;2780.00000000000;2849.00000000000;2851.00000000000;2849.00000000000;2869.00000000000;2833.00000000000;2851.00000000000;2875.00000000000;2897.00000000000;2877.00000000000;2793.00000000000;2861.00000000000;2886.00000000000;2905.00000000000;2900.00000000000;2910.00000000000;2871.00000000000;2853.00000000000;2871.00000000000;2914.00000000000;2895.00000000000;2889.00000000000;2882.00000000000;2852.00000000000;2869.00000000000;2890.00000000000;2897.00000000000;2889.00000000000;2873.00000000000;2885.00000000000;2844.00000000000;2879.00000000000;2881.00000000000;2884.00000000000;2895.00000000000;2876.00000000000;2874.00000000000;2879.00000000000;2873.00000000000;2887.00000000000;2880.00000000000;2880.00000000000;2874.00000000000;2891.00000000000;2896.00000000000;2864.00000000000;2882.00000000000;2867.00000000000;2870.00000000000;2875.00000000000;2882.00000000000;2896.00000000000;2881.00000000000;2860.00000000000;2893.00000000000;2869.00000000000;2908.00000000000;2878.00000000000;2894.00000000000;2886.00000000000;2881.00000000000;2875.00000000000;2888.00000000000;2880.00000000000;2885.00000000000;2888.00000000000;2880.00000000000;2892.00000000000;2895.00000000000;2872.00000000000;2884.00000000000;2887.00000000000;2902.00000000000;2899.00000000000;2872.00000000000;2893.00000000000;2874.00000000000;2896.00000000000
Gyro Y : 2101.00000000000;2094.00000000000;2113.00000000000;2097.00000000000;2110.00000000000;2104.00000000000;2099.00000000000;2099.00000000000;2107.00000000000;2101.00000000000;2081.00000000000;2107.00000000000;2103.00000000000;2106.00000000000;2102.00000000000;2101.00000000000;2091.00000000000;2104.00000000000;2106.00000000000;2117.00000000000;2077.00000000000;2104.00000000000;2106.00000000000;2115.00000000000;2105.00000000000;2089.00000000000;2108.00000000000;2107.00000000000;2101.00000000000;2105.00000000000;2103.00000000000;2090.00000000000;2104.00000000000;2111.00000000000;2095.00000000000;2100.00000000000;2111.00000000000;2116.00000000000;2101.00000000000;2117.00000000000;2141.00000000000;2134.00000000000;2110.00000000000;2039.00000000000;2005.00000000000;2119.00000000000;2219.00000000000;2247.00000000000;2304.00000000000;2261.00000000000;2267.00000000000;2210.00000000000;2207.00000000000;2250.00000000000;2262.00000000000;2305.00000000000;2319.00000000000;2324.00000000000;2319.00000000000;2339.00000000000;2331.00000000000;2297.00000000000;2240.00000000000;2238.00000000000;2247.00000000000;2251.00000000000;2205.00000000000;2152.00000000000;2133.00000000000;2076.00000000000;2096.00000000000;2109.00000000000;2073.00000000000;2083.00000000000;2066.00000000000;2079.00000000000;2070.00000000000;2079.00000000000;2065.00000000000;2079.00000000000;2077.00000000000;2079.00000000000;2052.00000000000;2057.00000000000;2050.00000000000;2088.00000000000;2060.00000000000;2076.00000000000;2075.00000000000;2085.00000000000;2062.00000000000;2082.00000000000;2057.00000000000;2075.00000000000;2055.00000000000;2062.00000000000;2071.00000000000;2086.00000000000;2070.00000000000;2079.00000000000;2083.00000000000;2063.00000000000;2058.00000000000;2079.00000000000;2063.00000000000;2075.00000000000;2067.00000000000;2060.00000000000;2073.00000000000;2079.00000000000;2083.00000000000;2067.00000000000;2091.00000000000;2091.00000000000;2062.00000000000;2073.00000000000;2083.00000000000;2071.00000000000;2085.00000000000;2071.00000000000;2063.00000000000;2077.00000000000;2071.00000000000;2091.00000000000;2076.00000000000;2079.00000000000;2062.00000000000;2069.00000000000;2095.00000000000;2062.00000000000;2087.00000000000;2079.00000000000;2057.00000000000;2096.00000000000;2077.00000000000;2087.00000000000;2081.00000000000;2073.00000000000;2080.00000000000;2095.00000000000;2062.00000000000;2042.00000000000;2066.00000000000;2081.00000000000;2119.00000000000;2073.00000000000;2076.00000000000;2085.00000000000;2085.00000000000;2051.00000000000
Gyro Z : 1906.00000000000;1898.00000000000;1927.00000000000;1928.00000000000;1931.00000000000;1907.00000000000;1903.00000000000;1922.00000000000;1920.00000000000;1926.00000000000;1912.00000000000;1906.00000000000;1910.00000000000;1936.00000000000;1933.00000000000;1931.00000000000;1916.00000000000;1911.00000000000;1930.00000000000;1906.00000000000;1907.00000000000;1904.00000000000;1894.00000000000;1907.00000000000;1901.00000000000;1900.00000000000;1917.00000000000;1903.00000000000;1922.00000000000;1897.00000000000;1907.00000000000;1935.00000000000;1906.00000000000;1883.00000000000;1913.00000000000;1889.00000000000;1906.00000000000;1904.00000000000;1904.00000000000;1965.00000000000;2036.00000000000;2050.00000000000;2016.00000000000;1972.00000000000;2128.00000000000;2424.00000000000;2547.00000000000;2582.00000000000;2666.00000000000;2647.00000000000;2639.00000000000;2631.00000000000;2618.00000000000;2645.00000000000;2640.00000000000;2647.00000000000;2656.00000000000;2703.00000000000;2683.00000000000;2606.00000000000;2567.00000000000;2663.00000000000;2644.00000000000;2367.00000000000;1919.00000000000;1474.00000000000;1475.00000000000;1682.00000000000;1584.00000000000;1586.00000000000;1647.00000000000;1645.00000000000;1567.00000000000;1557.00000000000;1565.00000000000;1573.00000000000;1637.00000000000;1620.00000000000;1607.00000000000;1606.00000000000;1621.00000000000;1638.00000000000;1639.00000000000;1671.00000000000;1657.00000000000;1666.00000000000;1634.00000000000;1676.00000000000;1673.00000000000;1674.00000000000;1696.00000000000;1692.00000000000;1666.00000000000;1678.00000000000;1667.00000000000;1686.00000000000;1657.00000000000;1671.00000000000;1648.00000000000;1671.00000000000;1697.00000000000;1673.00000000000;1677.00000000000;1682.00000000000;1690.00000000000;1671.00000000000;1687.00000000000;1709.00000000000;1674.00000000000;1692.00000000000;1709.00000000000;1657.00000000000;1668.00000000000;1671.00000000000;1681.00000000000;1708.00000000000;1667.00000000000;1683.00000000000;1676.00000000000;1656.00000000000;1707.00000000000;1694.00000000000;1691.00000000000;1687.00000000000;1677.00000000000;1692.00000000000;1691.00000000000;1685.00000000000;1713.00000000000;1686.00000000000;1684.00000000000;1693.00000000000;1667.00000000000;1684.00000000000;1671.00000000000;1678.00000000000;1661.00000000000;1703.00000000000;1658.00000000000;1675.00000000000;1669.00000000000;1686.00000000000;1668.00000000000;1665.00000000000;1686.00000000000;1680.00000000000;1690.00000000000;1693.00000000000;1681.00000000000;1679.00000000000
