COMMAND 6 SAMPLE 1
Accel X : 2892.00000000000;2870.00000000000;2871.00000000000;2881.00000000000;2898.00000000000;2872.00000000000;2856.00000000000;2863.00000000000;2873.00000000000;2871.00000000000;2899.00000000000;2896.00000000000;2875.00000000000;2885.00000000000;2898.00000000000;2879.00000000000;2901.00000000000;2874.00000000000;2882.00000000000;2871.00000000000;2864.00000000000;2879.00000000000;2880.00000000000;2885.00000000000;2877.00000000000;2876.00000000000;2877.00000000000;2890.00000000000;2864.00000000000;2863.00000000000;2870.00000000000;2881.00000000000;2890.00000000000;2881.00000000000;2870.00000000000;2870.00000000000;2869.00000000000;2900.00000000000;2893.00000000000;2872.00000000000;2882.00000000000;2877.00000000000;2880.00000000000;2877.00000000000;2905.00000000000;2878.00000000000;2873.00000000000;2898.00000000000;2902.00000000000;2897.00000000000;2905.00000000000;2889.00000000000;2905.00000000000;2985.00000000000;3060.00000000000;3015.00000000000;3195.00000000000;2927.00000000000;2812.00000000000;2803.00000000000;2691.00000000000;2231.00000000000;1622.00000000000;1945.00000000000;2027.00000000000;1829.00000000000;1947.00000000000;1985.00000000000;1934.00000000000;1911.00000000000;1879.00000000000;1873.00000000000;1931.00000000000;1874.00000000000;1807.00000000000;1952.00000000000;1978.00000000000;1936.00000000000;1922.00000000000;1910.00000000000;1813.00000000000;1789.00000000000;1791.00000000000;1777.00000000000;1842.00000000000;1938.00000000000;2096.00000000000;2277.00000000000;2652.00000000000;2835.00000000000;2881.00000000000;2849.00000000000;2919.00000000000;2967.00000000000;3013.00000000000;2829.00000000000;2783.00000000000;2847.00000000000;2871.00000000000;2865.00000000000;2895.00000000000;2839.00000000000;2816.00000000000;2865.00000000000;2928.00000000000;2927.00000000000;2902.00000000000;2870.00000000000;2855.00000000000;2886.00000000000;2895.00000000000;2905.00000000000;2900.00000000000;2890.00000000000;2877.00000000000;2895.00000000000;2899.00000000000;2928.00000000000;2889.00000000000;2905.00000000000;2865.00000000000;2900.00000000000;2859.00000000000;2870.00000000000;2865.00000000000;2856.00000000000;2863.00000000000;2868.00000000000;2868.00000000000;2864.00000000000;2847.00000000000;2874.00000000000;2869.00000000000;2889.00000000000;2902.00000000000;2854.00000000000;2849.00000000000;2859.00000000000;2922.00000000000;2887.00000000000;2874.00000000000;2877.00000000000;2851.00000000000;2883.00000000000;2877.00000000000;2877.00000000000;2874.00000000000;2859.00000000000;2880.00000000000;2874.00000000000
Accel Y : 2038.00000000000;2079.00000000000;2038.00000000000;2039.00000000000;2063.00000000000;2047.00000000000;2040.00000000000;2039.00000000000;2050.00000000000;2046.00000000000;2046.00000000000;2035.00000000000;2051.00000000000;2058.00000000000;2052.00000000000;2055.00000000000;2047.00000000000;2050.00000000000;2039.00000000000;2051.00000000000;2031.00000000000;2037.00000000000;2032.00000000000;2038.00000000000;2053.00000000000;2050.00000000000;2046.00000000000;2033.00000000000;2025.00000000000;2018.00000000000;2039.00000000000;2038.00000000000;2030.00000000000;2019.00000000000;2008.00000000000;2039.00000000000;2037.00000000000;2039.00000000000;2045.00000000000;2021.00000000000;2024.00000000000;2027.00000000000;2019.00000000000;2018.00000000000;2011.00000000000;2035.00000000000;2009.00000000000;2026.00000000000;2031.00000000000;2032.00000000000;2023.00000000000;2019.00000000000;2011.00000000000;1981.00000000000;2051.00000000000;2016.00000000000;2019.00000000000;2027.00000000000;2034.00000000000;2082.00000000000;1974.00000000000;1927.00000000000;2055.00000000000;2101.00000000000;2185.00000000000;2225.00000000000;2252.00000000000;2217.00000000000;2258.00000000000;2297.00000000000;2310.00000000000;2267.00000000000;2275.00000000000;2279.00000000000;2278.00000000000;2314.00000000000;2343.00000000000;2336.00000000000;2306.00000000000;2297.00000000000;2289.00000000000;2286.00000000000;2265.00000000000;2221.00000000000;2244.00000000000;2277.00000000000;2227.00000000000;2181.00000000000;2159.00000000000;2121.00000000000;2082.00000000000;2007.00000000000;1991.00000000000;1972.00000000000;2007.00000000000;1986.00000000000;1972.00000000000;1986.00000000000;1991.00000000000;1965.00000000000;1956.00000000000;1993.00000000000;2000.00000000000;1971.00000000000;1989.00000000000;1967.00000000000;1971.00000000000;1966.00000000000;1973.00000000000;1974.00000000000;1982.00000000000;1977.00000000000;1968.00000000000;1983.00000000000;1994.00000000000;1976.00000000000;1990.00000000000;1990.00000000000;1996.00000000000;2002.00000000000;2002.00000000000;2028.00000000000;1977.00000000000;1996.00000000000;1990.00000000000;1983.00000000000;1993.00000000000;2004.00000000000;1987.00000000000;1998.00000000000;1973.00000000000;1985.00000000000;2004.00000000000;1991.00000000000;2011.00000000000;1983.00000000000;1994.00000000000;1975.00000000000;2000.00000000000;1990.00000000000;1991.00000000000;1998.00000000000;2001.00000000000;1981.00000000000;1978.00000000000;1983.00000000000;1988.00000000000;1987.00000000000;1988.00000000000;1983.00000000000
Accel Z : 1776.00000000000;1786.00000000000;1798.00000000000;1789.00000000000;1802.00000000000;1785.00000000000;1783.00000000000;1782.00000000000;1783.00000000000;1751.00000000000;1793.00000000000;1785.00000000000;1771.00000000000;1738.00000000000;1757.00000000000;1770.00000000000;1779.00000000000;1787.00000000000;1791.00000000000;1795.00000000000;1807.00000000000;1790.00000000000;1780.00000000000;1813.00000000000;1794.00000000000;1793.00000000000;1770.00000000000;1764.00000000000;1789.00000000000;1778.00000000000;1777.00000000000;1753.00000000000;1761.00000000000;1789.00000000000;1786.00000000000;1789.00000000000;1768.00000000000;1783.00000000000;1770.00000000000;1790.00000000000;1781.00000000000;1781.00000000000;1785.00000000000;1814.00000000000;1784.00000000000;1794.00000000000;1799.00000000000;1777.00000000000;1782.00000000000;1794.00000000000;1799.00000000000;1817.00000000000;1808.00000000000;1846.00000000000;1844.00000000000;1917.00000000000;2021.00000000000;1990.00000000000;2038.00000000000;2085.00000000000;2210.00000000000;2247.00000000000;2326.00000000000;2520.00000000000;2613.00000000000;2646.00000000000;2645.00000000000;2599.00000000000;2644.00000000000;2704.00000000000;2781.00000000000;2736.00000000000;2683.00000000000;2657.00000000000;2682.00000000000;2731.00000000000;2738.00000000000;2756.00000000000;2688.00000000000;2726.00000000000;2671.00000000000;2688.00000000000;2724.00000000000;2699.00000000000;2657.00000000000;2624.00000000000;2498.00000000000;2250.00000000000;2127.00000000000;2049.00000000000;1993.00000000000;1976.00000000000;1914.00000000000;1887.00000000000;1850.00000000000;1789.00000000000;1782.00000000000;1765.00000000000;1728.00000000000;1681.00000000000;1722.00000000000;1732.00000000000;1723.00000000000;1733.00000000000;1719.00000000000;1753.00000000000;1748.00000000000;1753.00000000000;1757.00000000000;1772.00000000000;1747.00000000000;1761.00000000000;1757.00000000000;1750.00000000000;1772.00000000000;1787.00000000000;1780.00000000000;1805.00000000000;1785.00000000000;1783.00000000000;1771.00000000000;1777.00000000000;1773.00000000000;1766.00000000000;1770.00000000000;1759.00000000000;1754.00000000000;1758.00000000000;1790.00000000000;1795.00000000000;1791.00000000000;1767.00000000000;1761.00000000000;1780.00000000000;1773.00000000000;1803.00000000000;1756.00000000000;1772.00000000000;1785.00000000000;1786.00000000000;1779.00000000000;1787.00000000000;1791.00000000000;1770.00000000000;1785.00000000000;1787.00000000000;1781.00000000000;1775.00000000000;1791.00000000000;1773.00000000000
Gyro X : 2892.00000000000;2870.00000000000;2871.00000000000;2881.00000000000;2898.00000000000;2872.00000000000;2856.00000000000;2863.00000000000;2873.00000000000;2871.00000000000;2899.00000000000;2896.00000000000;2875.00000000000;2885.00000000000;2898.00000000000;2879.00000000000;2901.00000000000;2874.00000000000;2882.00000000000;2871.00000000000;2864.00000000000;2879.00000000000;2880.00000000000;2885.00000000000;2877.00000000000;2876.00000000000;2877.00000000000;2890.00000000000;2864.00000000000;2863.00000000000;2870.00000000000;2881.00000000000;2890.00000000000;2881.00000000000;2870.00000000000;2870.00000000000;2869.00000000000;2900.00000000000;2893.00000000000;2872.00000000000;2882.00000000000;2877.00000000000;2880.00000000000;2877.00000000000;2905.00000000000;2878.00000000000;2873.00000000000;2898.00000000000;2902.00000000000;2897.00000000000;2905.00000000000;2889.00000000000;2905.00000000000;2985.00000000000;3060.00000000000;3015.00000000000;3195.00000000000;2927.00000000000;2812.00000000000;2803.00000000000;2691.00000000000;2231.00000000000;1622.00000000000;1945.00000000000;2027.00000000000;1829.00000000000;1947.00000000000;1985.00000000000;1934.00000000000;1911.00000000000;1879.00000000000;1873.00000000000;1931.00000000000;1874.00000000000;1807.00000000000;1952.00000000000;1978.00000000000;1936.00000000000;1922.00000000000;1910.00000000000;1813.00000000000;1789.00000000000;1791.00000000000;1777.00000000000;1842.00000000000;1938.00000000000;2096.00000000000;2277.00000000000;2652.00000000000;2835.00000000000;2881.00000000000;2849.00000000000;2919.00000000000;2967.00000000000;3013.00000000000;2829.00000000000;2783.00000000000;2847.00000000000;2871.00000000000;2865.00000000000;2895.00000000000;2839.00000000000;2816.00000000000;2865.00000000000;2928.00000000000;2927.00000000000;2902.00000000000;2870.00000000000;2855.00000000000;2886.00000000000;2895.00000000000;2905.00000000000;2900.00000000000;2890.00000000000;2877.00000000000;2895.00000000000;2899.00000000000;2928.00000000000;2889.00000000000;2905.00000000000;2865.00000000000;2900.00000000000;2859.00000000000;2870.00000000000;2865.00000000000;2856.00000000000;2863.00000000000;2868.00000000000;2868.00000000000;2864.00000000000;2847.00000000000;2874.00000000000;2869.00000000000;2889.00000000000;2902.00000000000;2854.00000000000;2849.00000000000;2859.00000000000;2922.00000000000;2887.00000000000;2874.00000000000;2877.00000000000;2851.00000000000;2883.00000000000;2877.00000000000;2877.00000000000;2874.00000000000;2859.00000000000;2880.00000000000;2874.00000000000
Gyro Y : 2038.00000000000;2079.00000000000;2038.00000000000;2039.00000000000;2063.00000000000;2047.00000000000;2040.00000000000;2039.00000000000;2050.00000000000;2046.00000000000;2046.00000000000;2035.00000000000;2051.00000000000;2058.00000000000;2052.00000000000;2055.00000000000;2047.00000000000;2050.00000000000;2039.00000000000;2051.00000000000;2031.00000000000;2037.00000000000;2032.00000000000;2038.00000000000;2053.00000000000;2050.00000000000;2046.00000000000;2033.00000000000;2025.00000000000;2018.00000000000;2039.00000000000;2038.00000000000;2030.00000000000;2019.00000000000;2008.00000000000;2039.00000000000;2037.00000000000;2039.00000000000;2045.00000000000;2021.00000000000;2024.00000000000;2027.00000000000;2019.00000000000;2018.00000000000;2011.00000000000;2035.00000000000;2009.00000000000;2026.00000000000;2031.00000000000;2032.00000000000;2023.00000000000;2019.00000000000;2011.00000000000;1981.00000000000;2051.00000000000;2016.00000000000;2019.00000000000;2027.00000000000;2034.00000000000;2082.00000000000;1974.00000000000;1927.00000000000;2055.00000000000;2101.00000000000;2185.00000000000;2225.00000000000;2252.00000000000;2217.00000000000;2258.00000000000;2297.00000000000;2310.00000000000;2267.00000000000;2275.00000000000;2279.00000000000;2278.00000000000;2314.00000000000;2343.00000000000;2336.00000000000;2306.00000000000;2297.00000000000;2289.00000000000;2286.00000000000;2265.00000000000;2221.00000000000;2244.00000000000;2277.00000000000;2227.00000000000;2181.00000000000;2159.00000000000;2121.00000000000;2082.00000000000;2007.00000000000;1991.00000000000;1972.00000000000;2007.00000000000;1986.00000000000;1972.00000000000;1986.00000000000;1991.00000000000;1965.00000000000;1956.00000000000;1993.00000000000;2000.00000000000;1971.00000000000;1989.00000000000;1967.00000000000;1971.00000000000;1966.00000000000;1973.00000000000;1974.00000000000;1982.00000000000;1977.00000000000;1968.00000000000;1983.00000000000;1994.00000000000;1976.00000000000;1990.00000000000;1990.00000000000;1996.00000000000;2002.00000000000;2002.00000000000;2028.00000000000;1977.00000000000;1996.00000000000;1990.00000000000;1983.00000000000;1993.00000000000;2004.00000000000;1987.00000000000;1998.00000000000;1973.00000000000;1985.00000000000;2004.00000000000;1991.00000000000;2011.00000000000;1983.00000000000;1994.00000000000;1975.00000000000;2000.00000000000;1990.00000000000;1991.00000000000;1998.00000000000;2001.00000000000;1981.00000000000;1978.00000000000;1983.00000000000;1988.00000000000;1987.00000000000;1988.00000000000;1983.00000000000
Gyro Z : 1776.00000000000;1786.00000000000;1798.00000000000;1789.00000000000;1802.00000000000;1785.00000000000;1783.00000000000;1782.00000000000;1783.00000000000;1751.00000000000;1793.00000000000;1785.00000000000;1771.00000000000;1738.00000000000;1757.00000000000;1770.00000000000;1779.00000000000;1787.00000000000;1791.00000000000;1795.00000000000;1807.00000000000;1790.00000000000;1780.00000000000;1813.00000000000;1794.00000000000;1793.00000000000;1770.00000000000;1764.00000000000;1789.00000000000;1778.00000000000;1777.00000000000;1753.00000000000;1761.00000000000;1789.00000000000;1786.00000000000;1789.00000000000;1768.00000000000;1783.00000000000;1770.00000000000;1790.00000000000;1781.00000000000;1781.00000000000;1785.00000000000;1814.00000000000;1784.00000000000;1794.00000000000;1799.00000000000;1777.00000000000;1782.00000000000;1794.00000000000;1799.00000000000;1817.00000000000;1808.00000000000;1846.00000000000;1844.00000000000;1917.00000000000;2021.00000000000;1990.00000000000;2038.00000000000;2085.00000000000;2210.00000000000;2247.00000000000;2326.00000000000;2520.00000000000;2613.00000000000;2646.00000000000;2645.00000000000;2599.00000000000;2644.00000000000;2704.00000000000;2781.00000000000;2736.00000000000;2683.00000000000;2657.00000000000;2682.00000000000;2731.00000000000;2738.00000000000;2756.00000000000;2688.00000000000;2726.00000000000;2671.00000000000;2688.00000000000;2724.00000000000;2699.00000000000;2657.00000000000;2624.00000000000;2498.00000000000;2250.00000000000;2127.00000000000;2049.00000000000;1993.00000000000;1976.00000000000;1914.00000000000;1887.00000000000;1850.00000000000;1789.00000000000;1782.00000000000;1765.00000000000;1728.00000000000;1681.00000000000;1722.00000000000;1732.00000000000;1723.00000000000;1733.00000000000;1719.00000000000;1753.00000000000;1748.00000000000;1753.00000000000;1757.00000000000;1772.00000000000;1747.00000000000;1761.00000000000;1757.00000000000;1750.00000000000;1772.00000000000;1787.00000000000;1780.00000000000;1805.00000000000;1785.00000000000;1783.00000000000;1771.00000000000;1777.00000000000;1773.00000000000;1766.00000000000;1770.00000000000;1759.00000000000;1754.00000000000;1758.00000000000;1790.00000000000;1795.00000000000;1791.00000000000;1767.00000000000;1761.00000000000;1780.00000000000;1773.00000000000;1803.00000000000;1756.00000000000;1772.00000000000;1785.00000000000;1786.00000000000;1779.00000000000;1787.00000000000;1791.00000000000;1770.00000000000;1785.00000000000;1787.00000000000;1781.00000000000;1775.00000000000;1791.00000000000;1773.00000000000
