COMMAND 5 SAMPLE 1
Accel X : 2835.00000000000;2854.00000000000;2899.00000000000;2912.00000000000;2899.00000000000;2889.00000000000;2892.00000000000;2961.00000000000;2884.00000000000;2787.00000000000;2767.00000000000;2798.00000000000;2850.00000000000;2871.00000000000;2918.00000000000;2939.00000000000;2932.00000000000;2890.00000000000;2807.00000000000;2775.00000000000;2804.00000000000;2852.00000000000;2867.00000000000;2884.00000000000;2907.00000000000;2909.00000000000;2882.00000000000;2812.00000000000;2801.00000000000;2815.00000000000;2882.00000000000;2955.00000000000;2984.00000000000;2923.00000000000;2764.00000000000;2719.00000000000;2824.00000000000;2875.00000000000;3089.00000000000;3069.00000000000;2860.00000000000;2593.00000000000;2699.00000000000;2762.00000000000;2826.00000000000;2965.00000000000;3028.00000000000;2946.00000000000;2783.00000000000;2663.00000000000;2761.00000000000;2806.00000000000;2895.00000000000;2996.00000000000;2961.00000000000;2863.00000000000;2716.00000000000;2774.00000000000;2818.00000000000;2863.00000000000;2964.00000000000;2914.00000000000;2918.00000000000;2803.00000000000;2769.00000000000;2823.00000000000;2846.00000000000;2876.00000000000;2903.00000000000;2880.00000000000;2837.00000000000;2856.00000000000;2857.00000000000;2872.00000000000;2862.00000000000;2868.00000000000;2897.00000000000;2878.00000000000;2882.00000000000;2865.00000000000;2865.00000000000;2861.00000000000;2838.00000000000;2844.00000000000;2870.00000000000;2892.00000000000;2869.00000000000;2818.00000000000;2824.00000000000;2830.00000000000;2830.00000000000;2839.00000000000;2866.00000000000;2828.00000000000;2821.00000000000;2879.00000000000;2901.00000000000;2928.00000000000;2959.00000000000;2930.00000000000;2914.00000000000;2993.00000000000;2998.00000000000;2919.00000000000;2837.00000000000;2792.00000000000;2775.00000000000;2874.00000000000;2871.00000000000;2812.00000000000;2785.00000000000;2791.00000000000;2801.00000000000;2803.00000000000;2841.00000000000;2818.00000000000;2758.00000000000;2811.00000000000;2905.00000000000;2965.00000000000;3039.00000000000;3019.00000000000;3023.00000000000;2947.00000000000;2867.00000000000;2852.00000000000;2829.00000000000;2828.00000000000;2829.00000000000;2816.00000000000;2802.00000000000;2838.00000000000;2896.00000000000;2920.00000000000;2937.00000000000;2960.00000000000;3040.00000000000;3013.00000000000;2836.00000000000;2672.00000000000;2656.00000000000;2743.00000000000;2804.00000000000;2869.00000000000;2863.00000000000;2868.00000000000;2881.00000000000;2878.00000000000;2883.00000000000;2898.00000000000
Accel Y : 2136.00000000000;2101.00000000000;2103.00000000000;2100.00000000000;2121.00000000000;2093.00000000000;2108.00000000000;2098.00000000000;2103.00000000000;2104.00000000000;2109.00000000000;2129.00000000000;2102.00000000000;2131.00000000000;2120.00000000000;2105.00000000000;2109.00000000000;2124.00000000000;2098.00000000000;2119.00000000000;2125.00000000000;2119.00000000000;2116.00000000000;2130.00000000000;2123.00000000000;2138.00000000000;2106.00000000000;2118.00000000000;2106.00000000000;2129.00000000000;2117.00000000000;2121.00000000000;2134.00000000000;2120.00000000000;2104.00000000000;2104.00000000000;2101.00000000000;2107.00000000000;2115.00000000000;2141.00000000000;2095.00000000000;2095.00000000000;2081.00000000000;2116.00000000000;2121.00000000000;2129.00000000000;2126.00000000000;2132.00000000000;2127.00000000000;2101.00000000000;2132.00000000000;2126.00000000000;2120.00000000000;2129.00000000000;2118.00000000000;2115.00000000000;2094.00000000000;2128.00000000000;2099.00000000000;2120.00000000000;2147.00000000000;2140.00000000000;2104.00000000000;2111.00000000000;2118.00000000000;2131.00000000000;2113.00000000000;2127.00000000000;2138.00000000000;2121.00000000000;2123.00000000000;2095.00000000000;2122.00000000000;2115.00000000000;2118.00000000000;2113.00000000000;2128.00000000000;2127.00000000000;2115.00000000000;2137.00000000000;2111.00000000000;2119.00000000000;2127.00000000000;2126.00000000000;2118.00000000000;2136.00000000000;2124.00000000000;2115.00000000000;2109.00000000000;2117.00000000000;2131.00000000000;2131.00000000000;2119.00000000000;2119.00000000000;2105.00000000000;2123.00000000000;2107.00000000000;2131.00000000000;2104.00000000000;2120.00000000000;2124.00000000000;2089.00000000000;2128.00000000000;2091.00000000000;2079.00000000000;2118.00000000000;2093.00000000000;2116.00000000000;2122.00000000000;2116.00000000000;2104.00000000000;2107.00000000000;2128.00000000000;2130.00000000000;2110.00000000000;2139.00000000000;2110.00000000000;2122.00000000000;2120.00000000000;2123.00000000000;2112.00000000000;2105.00000000000;2106.00000000000;2125.00000000000;2131.00000000000;2119.00000000000;2134.00000000000;2145.00000000000;2130.00000000000;2123.00000000000;2118.00000000000;2105.00000000000;2143.00000000000;2120.00000000000;2136.00000000000;2102.00000000000;2137.00000000000;2123.00000000000;2077.00000000000;2090.00000000000;2107.00000000000;2097.00000000000;2114.00000000000;2115.00000000000;2114.00000000000;2131.00000000000;2118.00000000000;2116.00000000000;2095.00000000000;2136.00000000000
Accel Z : 1817.00000000000;1827.00000000000;1781.00000000000;1826.00000000000;1815.00000000000;1813.00000000000;1812.00000000000;1809.00000000000;1812.00000000000;1807.00000000000;1800.00000000000;1801.00000000000;1822.00000000000;1796.00000000000;1789.00000000000;1810.00000000000;1816.00000000000;1793.00000000000;1789.00000000000;1807.00000000000;1829.00000000000;1831.00000000000;1813.00000000000;1840.00000000000;1833.00000000000;1815.00000000000;1816.00000000000;1841.00000000000;1822.00000000000;1812.00000000000;1790.00000000000;1846.00000000000;1866.00000000000;1861.00000000000;1799.00000000000;1816.00000000000;1799.00000000000;1827.00000000000;1892.00000000000;1900.00000000000;1860.00000000000;1812.00000000000;1872.00000000000;1875.00000000000;1903.00000000000;1946.00000000000;1974.00000000000;1965.00000000000;1892.00000000000;1853.00000000000;1879.00000000000;1902.00000000000;1926.00000000000;2003.00000000000;1955.00000000000;1883.00000000000;1840.00000000000;1884.00000000000;1884.00000000000;1895.00000000000;1927.00000000000;1895.00000000000;1883.00000000000;1857.00000000000;1873.00000000000;1873.00000000000;1874.00000000000;1866.00000000000;1900.00000000000;1876.00000000000;1839.00000000000;1840.00000000000;1867.00000000000;1848.00000000000;1832.00000000000;1858.00000000000;1860.00000000000;1852.00000000000;1844.00000000000;1855.00000000000;1866.00000000000;1864.00000000000;1879.00000000000;1880.00000000000;1876.00000000000;1878.00000000000;1882.00000000000;1866.00000000000;1855.00000000000;1850.00000000000;1848.00000000000;1856.00000000000;1867.00000000000;1829.00000000000;1792.00000000000;1767.00000000000;1767.00000000000;1715.00000000000;1720.00000000000;1736.00000000000;1690.00000000000;1720.00000000000;1748.00000000000;1775.00000000000;1768.00000000000;1789.00000000000;1805.00000000000;1844.00000000000;1899.00000000000;1882.00000000000;1877.00000000000;1878.00000000000;1872.00000000000;1892.00000000000;1898.00000000000;1866.00000000000;1808.00000000000;1802.00000000000;1799.00000000000;1757.00000000000;1776.00000000000;1784.00000000000;1748.00000000000;1748.00000000000;1747.00000000000;1746.00000000000;1775.00000000000;1816.00000000000;1794.00000000000;1805.00000000000;1790.00000000000;1762.00000000000;1777.00000000000;1787.00000000000;1754.00000000000;1817.00000000000;1807.00000000000;1850.00000000000;1859.00000000000;1849.00000000000;1882.00000000000;1914.00000000000;1933.00000000000;1961.00000000000;1960.00000000000;1954.00000000000;1945.00000000000;1922.00000000000;1921.00000000000;1921.00000000000
Gyro X : 2835.00000000000;2854.00000000000;2899.00000000000;2912.00000000000;2899.00000000000;2889.00000000000;2892.00000000000;2961.00000000000;2884.00000000000;2787.00000000000;2767.00000000000;2798.00000000000;2850.00000000000;2871.00000000000;2918.00000000000;2939.00000000000;2932.00000000000;2890.00000000000;2807.00000000000;2775.00000000000;2804.00000000000;2852.00000000000;2867.00000000000;2884.00000000000;2907.00000000000;2909.00000000000;2882.00000000000;2812.00000000000;2801.00000000000;2815.00000000000;2882.00000000000;2955.00000000000;2984.00000000000;2923.00000000000;2764.00000000000;2719.00000000000;2824.00000000000;2875.00000000000;3089.00000000000;3069.00000000000;2860.00000000000;2593.00000000000;2699.00000000000;2762.00000000000;2826.00000000000;2965.00000000000;3028.00000000000;2946.00000000000;2783.00000000000;2663.00000000000;2761.00000000000;2806.00000000000;2895.00000000000;2996.00000000000;2961.00000000000;2863.00000000000;2716.00000000000;2774.00000000000;2818.00000000000;2863.00000000000;2964.00000000000;2914.00000000000;2918.00000000000;2803.00000000000;2769.00000000000;2823.00000000000;2846.00000000000;2876.00000000000;2903.00000000000;2880.00000000000;2837.00000000000;2856.00000000000;2857.00000000000;2872.00000000000;2862.00000000000;2868.00000000000;2897.00000000000;2878.00000000000;2882.00000000000;2865.00000000000;2865.00000000000;2861.00000000000;2838.00000000000;2844.00000000000;2870.00000000000;2892.00000000000;2869.00000000000;2818.00000000000;2824.00000000000;2830.00000000000;2830.00000000000;2839.00000000000;2866.00000000000;2828.00000000000;2821.00000000000;2879.00000000000;2901.00000000000;2928.00000000000;2959.00000000000;2930.00000000000;2914.00000000000;2993.00000000000;2998.00000000000;2919.00000000000;2837.00000000000;2792.00000000000;2775.00000000000;2874.00000000000;2871.00000000000;2812.00000000000;2785.00000000000;2791.00000000000;2801.00000000000;2803.00000000000;2841.00000000000;2818.00000000000;2758.00000000000;2811.00000000000;2905.00000000000;2965.00000000000;3039.00000000000;3019.00000000000;3023.00000000000;2947.00000000000;2867.00000000000;2852.00000000000;2829.00000000000;2828.00000000000;2829.00000000000;2816.00000000000;2802.00000000000;2838.00000000000;2896.00000000000;2920.00000000000;2937.00000000000;2960.00000000000;3040.00000000000;3013.00000000000;2836.00000000000;2672.00000000000;2656.00000000000;2743.00000000000;2804.00000000000;2869.00000000000;2863.00000000000;2868.00000000000;2881.00000000000;2878.00000000000;2883.00000000000;2898.00000000000
Gyro Y : 2136.00000000000;2101.00000000000;2103.00000000000;2100.00000000000;2121.00000000000;2093.00000000000;2108.00000000000;2098.00000000000;2103.00000000000;2104.00000000000;2109.00000000000;2129.00000000000;2102.00000000000;2131.00000000000;2120.00000000000;2105.00000000000;2109.00000000000;2124.00000000000;2098.00000000000;2119.00000000000;2125.00000000000;2119.00000000000;2116.00000000000;2130.00000000000;2123.00000000000;2138.00000000000;2106.00000000000;2118.00000000000;2106.00000000000;2129.00000000000;2117.00000000000;2121.00000000000;2134.00000000000;2120.00000000000;2104.00000000000;2104.00000000000;2101.00000000000;2107.00000000000;2115.00000000000;2141.00000000000;2095.00000000000;2095.00000000000;2081.00000000000;2116.00000000000;2121.00000000000;2129.00000000000;2126.00000000000;2132.00000000000;2127.00000000000;2101.00000000000;2132.00000000000;2126.00000000000;2120.00000000000;2129.00000000000;2118.00000000000;2115.00000000000;2094.00000000000;2128.00000000000;2099.00000000000;2120.00000000000;2147.00000000000;2140.00000000000;2104.00000000000;2111.00000000000;2118.00000000000;2131.00000000000;2113.00000000000;2127.00000000000;2138.00000000000;2121.00000000000;2123.00000000000;2095.00000000000;2122.00000000000;2115.00000000000;2118.00000000000;2113.00000000000;2128.00000000000;2127.00000000000;2115.00000000000;2137.00000000000;2111.00000000000;2119.00000000000;2127.00000000000;2126.00000000000;2118.00000000000;2136.00000000000;2124.00000000000;2115.00000000000;2109.00000000000;2117.00000000000;2131.00000000000;2131.00000000000;2119.00000000000;2119.00000000000;2105.00000000000;2123.00000000000;2107.00000000000;2131.00000000000;2104.00000000000;2120.00000000000;2124.00000000000;2089.00000000000;2128.00000000000;2091.00000000000;2079.00000000000;2118.00000000000;2093.00000000000;2116.00000000000;2122.00000000000;2116.00000000000;2104.00000000000;2107.00000000000;2128.00000000000;2130.00000000000;2110.00000000000;2139.00000000000;2110.00000000000;2122.00000000000;2120.00000000000;2123.00000000000;2112.00000000000;2105.00000000000;2106.00000000000;2125.00000000000;2131.00000000000;2119.00000000000;2134.00000000000;2145.00000000000;2130.00000000000;2123.00000000000;2118.00000000000;2105.00000000000;2143.00000000000;2120.00000000000;2136.00000000000;2102.00000000000;2137.00000000000;2123.00000000000;2077.00000000000;2090.00000000000;2107.00000000000;2097.00000000000;2114.00000000000;2115.00000000000;2114.00000000000;2131.00000000000;2118.00000000000;2116.00000000000;2095.00000000000;2136.00000000000
Gyro Z : 1817.00000000000;1827.00000000000;1781.00000000000;1826.00000000000;1815.00000000000;1813.00000000000;1812.00000000000;1809.00000000000;1812.00000000000;1807.00000000000;1800.00000000000;1801.00000000000;1822.00000000000;1796.00000000000;1789.00000000000;1810.00000000000;1816.00000000000;1793.00000000000;1789.00000000000;1807.00000000000;1829.00000000000;1831.00000000000;1813.00000000000;1840.00000000000;1833.00000000000;1815.00000000000;1816.00000000000;1841.00000000000;1822.00000000000;1812.00000000000;1790.00000000000;1846.00000000000;1866.00000000000;1861.00000000000;1799.00000000000;1816.00000000000;1799.00000000000;1827.00000000000;1892.00000000000;1900.00000000000;1860.00000000000;1812.00000000000;1872.00000000000;1875.00000000000;1903.00000000000;1946.00000000000;1974.00000000000;1965.00000000000;1892.00000000000;1853.00000000000;1879.00000000000;1902.00000000000;1926.00000000000;2003.00000000000;1955.00000000000;1883.00000000000;1840.00000000000;1884.00000000000;1884.00000000000;1895.00000000000;1927.00000000000;1895.00000000000;1883.00000000000;1857.00000000000;1873.00000000000;1873.00000000000;1874.00000000000;1866.00000000000;1900.00000000000;1876.00000000000;1839.00000000000;1840.00000000000;1867.00000000000;1848.00000000000;1832.00000000000;1858.00000000000;1860.00000000000;1852.00000000000;1844.00000000000;1855.00000000000;1866.00000000000;1864.00000000000;1879.00000000000;1880.00000000000;1876.00000000000;1878.00000000000;1882.00000000000;1866.00000000000;1855.00000000000;1850.00000000000;1848.00000000000;1856.00000000000;1867.00000000000;1829.00000000000;1792.00000000000;1767.00000000000;1767.00000000000;1715.00000000000;1720.00000000000;1736.00000000000;1690.00000000000;1720.00000000000;1748.00000000000;1775.00000000000;1768.00000000000;1789.00000000000;1805.00000000000;1844.00000000000;1899.00000000000;1882.00000000000;1877.00000000000;1878.00000000000;1872.00000000000;1892.00000000000;1898.00000000000;1866.00000000000;1808.00000000000;1802.00000000000;1799.00000000000;1757.00000000000;1776.00000000000;1784.00000000000;1748.00000000000;1748.00000000000;1747.00000000000;1746.00000000000;1775.00000000000;1816.00000000000;1794.00000000000;1805.00000000000;1790.00000000000;1762.00000000000;1777.00000000000;1787.00000000000;1754.00000000000;1817.00000000000;1807.00000000000;1850.00000000000;1859.00000000000;1849.00000000000;1882.00000000000;1914.00000000000;1933.00000000000;1961.00000000000;1960.00000000000;1954.00000000000;1945.00000000000;1922.00000000000;1921.00000000000;1921.00000000000
