COMMAND 2 SAMPLE 1
Accel X : 2818.00000000000;2854.00000000000;2869.00000000000;2845.00000000000;2857.00000000000;2848.00000000000;2835.00000000000;2827.00000000000;2846.00000000000;2856.00000000000;2853.00000000000;2833.00000000000;2840.00000000000;2868.00000000000;2863.00000000000;2835.00000000000;2845.00000000000;2835.00000000000;2850.00000000000;2860.00000000000;2831.00000000000;2836.00000000000;2850.00000000000;2854.00000000000;2831.00000000000;2840.00000000000;2849.00000000000;2851.00000000000;2867.00000000000;2870.00000000000;2848.00000000000;2849.00000000000;2873.00000000000;2842.00000000000;2827.00000000000;2834.00000000000;2850.00000000000;2865.00000000000;2856.00000000000;2867.00000000000;2851.00000000000;2835.00000000000;2829.00000000000;2815.00000000000;2832.00000000000;2803.00000000000;2789.00000000000;2803.00000000000;2892.00000000000;2849.00000000000;2978.00000000000;2957.00000000000;3028.00000000000;3048.00000000000;3065.00000000000;3336.00000000000;3272.00000000000;3239.00000000000;3227.00000000000;3178.00000000000;3080.00000000000;3177.00000000000;3136.00000000000;3152.00000000000;3069.00000000000;2930.00000000000;2911.00000000000;2865.00000000000;2799.00000000000;2683.00000000000;2679.00000000000;2660.00000000000;2585.00000000000;2539.00000000000;2537.00000000000;2462.00000000000;2433.00000000000;2370.00000000000;2389.00000000000;2452.00000000000;2463.00000000000;2526.00000000000;2482.00000000000;2495.00000000000;2577.00000000000;2638.00000000000;2654.00000000000;2536.00000000000;2614.00000000000;2668.00000000000;2808.00000000000;2827.00000000000;2823.00000000000;2814.00000000000;2675.00000000000;2739.00000000000;2859.00000000000;3013.00000000000;3123.00000000000;3018.00000000000;3049.00000000000;3118.00000000000;3015.00000000000;3079.00000000000;3164.00000000000;3274.00000000000;3122.00000000000;2975.00000000000;2906.00000000000;2992.00000000000;3087.00000000000;3121.00000000000;3040.00000000000;2955.00000000000;2863.00000000000;2820.00000000000;2890.00000000000;2898.00000000000;2889.00000000000;2860.00000000000;2814.00000000000;2844.00000000000;2844.00000000000;2855.00000000000;2833.00000000000;2830.00000000000;2820.00000000000;2824.00000000000;2835.00000000000;2832.00000000000;2864.00000000000;2817.00000000000;2838.00000000000;2866.00000000000;2862.00000000000;2891.00000000000;2876.00000000000;2875.00000000000;2866.00000000000;2870.00000000000;2892.00000000000;2894.00000000000;2901.00000000000;2891.00000000000;2871.00000000000;2894.00000000000;2858.00000000000;2849.00000000000;2853.00000000000;2880.00000000000
Accel Y : 2079.00000000000;2112.00000000000;2116.00000000000;2100.00000000000;2142.00000000000;2122.00000000000;2117.00000000000;2129.00000000000;2125.00000000000;2096.00000000000;2125.00000000000;2125.00000000000;2118.00000000000;2133.00000000000;2135.00000000000;2133.00000000000;2126.00000000000;2138.00000000000;2131.00000000000;2118.00000000000;2126.00000000000;2141.00000000000;2111.00000000000;2115.00000000000;2110.00000000000;2127.00000000000;2127.00000000000;2147.00000000000;2129.00000000000;2133.00000000000;2136.00000000000;2142.00000000000;2117.00000000000;2143.00000000000;2111.00000000000;2148.00000000000;2145.00000000000;2147.00000000000;2142.00000000000;2130.00000000000;2148.00000000000;2152.00000000000;2166.00000000000;2147.00000000000;2133.00000000000;2153.00000000000;2161.00000000000;2186.00000000000;2217.00000000000;2230.00000000000;2261.00000000000;2275.00000000000;2345.00000000000;2387.00000000000;2444.00000000000;2519.00000000000;2520.00000000000;2606.00000000000;2628.00000000000;2685.00000000000;2615.00000000000;2670.00000000000;2643.00000000000;2646.00000000000;2663.00000000000;2653.00000000000;2632.00000000000;2599.00000000000;2529.00000000000;2475.00000000000;2414.00000000000;2346.00000000000;2239.00000000000;2127.00000000000;2023.00000000000;1997.00000000000;1908.00000000000;1871.00000000000;1845.00000000000;1816.00000000000;1821.00000000000;1854.00000000000;1855.00000000000;1800.00000000000;1791.00000000000;1840.00000000000;1941.00000000000;2046.00000000000;1963.00000000000;2023.00000000000;2083.00000000000;2151.00000000000;2156.00000000000;2223.00000000000;2345.00000000000;2434.00000000000;2532.00000000000;2540.00000000000;2669.00000000000;2757.00000000000;2704.00000000000;2684.00000000000;2715.00000000000;2741.00000000000;2739.00000000000;2699.00000000000;2627.00000000000;2650.00000000000;2553.00000000000;2523.00000000000;2473.00000000000;2405.00000000000;2379.00000000000;2343.00000000000;2330.00000000000;2295.00000000000;2295.00000000000;2283.00000000000;2269.00000000000;2255.00000000000;2245.00000000000;2209.00000000000;2195.00000000000;2180.00000000000;2210.00000000000;2174.00000000000;2176.00000000000;2164.00000000000;2137.00000000000;2131.00000000000;2130.00000000000;2129.00000000000;2115.00000000000;2109.00000000000;2111.00000000000;2089.00000000000;2120.00000000000;2135.00000000000;2114.00000000000;2137.00000000000;2137.00000000000;2128.00000000000;2152.00000000000;2176.00000000000;2165.00000000000;2135.00000000000;2148.00000000000;2135.00000000000;2164.00000000000;2176.00000000000
Accel Z : 1912.00000000000;1943.00000000000;1919.00000000000;1919.00000000000;1889.00000000000;1916.00000000000;1906.00000000000;1915.00000000000;1909.00000000000;1891.00000000000;1883.00000000000;1889.00000000000;1905.00000000000;1899.00000000000;1896.00000000000;1889.00000000000;1910.00000000000;1915.00000000000;1910.00000000000;1897.00000000000;1905.00000000000;1909.00000000000;1919.00000000000;1904.00000000000;1904.00000000000;1906.00000000000;1913.00000000000;1901.00000000000;1917.00000000000;1901.00000000000;1913.00000000000;1904.00000000000;1888.00000000000;1918.00000000000;1874.00000000000;1910.00000000000;1893.00000000000;1900.00000000000;1893.00000000000;1895.00000000000;1894.00000000000;1911.00000000000;1910.00000000000;1913.00000000000;1907.00000000000;1955.00000000000;2011.00000000000;2055.00000000000;2085.00000000000;2190.00000000000;2240.00000000000;2324.00000000000;2361.00000000000;2399.00000000000;2435.00000000000;2555.00000000000;2487.00000000000;2480.00000000000;2399.00000000000;2332.00000000000;2195.00000000000;2117.00000000000;2085.00000000000;1952.00000000000;1816.00000000000;1648.00000000000;1540.00000000000;1488.00000000000;1379.00000000000;1213.00000000000;1148.00000000000;1035.00000000000;986.000000000000;968.000000000000;905.000000000000;869.000000000000;899.000000000000;883.000000000000;957.000000000000;998.000000000000;1048.00000000000;1088.00000000000;1134.00000000000;1147.00000000000;1160.00000000000;1223.00000000000;1225.00000000000;1173.00000000000;1178.00000000000;1203.00000000000;1275.00000000000;1319.00000000000;1301.00000000000;1344.00000000000;1318.00000000000;1371.00000000000;1452.00000000000;1530.00000000000;1694.00000000000;1770.00000000000;1984.00000000000;2079.00000000000;2025.00000000000;2234.00000000000;2443.00000000000;2524.00000000000;2401.00000000000;2345.00000000000;2425.00000000000;2449.00000000000;2419.00000000000;2373.00000000000;2299.00000000000;2255.00000000000;2140.00000000000;2047.00000000000;2013.00000000000;1963.00000000000;1913.00000000000;1876.00000000000;1813.00000000000;1793.00000000000;1749.00000000000;1724.00000000000;1701.00000000000;1684.00000000000;1692.00000000000;1692.00000000000;1677.00000000000;1694.00000000000;1687.00000000000;1713.00000000000;1721.00000000000;1725.00000000000;1737.00000000000;1716.00000000000;1730.00000000000;1743.00000000000;1759.00000000000;1775.00000000000;1787.00000000000;1772.00000000000;1768.00000000000;1766.00000000000;1777.00000000000;1783.00000000000;1770.00000000000;1790.00000000000;1789.00000000000;1798.00000000000
Gyro X : 2818.00000000000;2854.00000000000;2869.00000000000;2845.00000000000;2857.00000000000;2848.00000000000;2835.00000000000;2827.00000000000;2846.00000000000;2856.00000000000;2853.00000000000;2833.00000000000;2840.00000000000;2868.00000000000;2863.00000000000;2835.00000000000;2845.00000000000;2835.00000000000;2850.00000000000;2860.00000000000;2831.00000000000;2836.00000000000;2850.00000000000;2854.00000000000;2831.00000000000;2840.00000000000;2849.00000000000;2851.00000000000;2867.00000000000;2870.00000000000;2848.00000000000;2849.00000000000;2873.00000000000;2842.00000000000;2827.00000000000;2834.00000000000;2850.00000000000;2865.00000000000;2856.00000000000;2867.00000000000;2851.00000000000;2835.00000000000;2829.00000000000;2815.00000000000;2832.00000000000;2803.00000000000;2789.00000000000;2803.00000000000;2892.00000000000;2849.00000000000;2978.00000000000;2957.00000000000;3028.00000000000;3048.00000000000;3065.00000000000;3336.00000000000;3272.00000000000;3239.00000000000;3227.00000000000;3178.00000000000;3080.00000000000;3177.00000000000;3136.00000000000;3152.00000000000;3069.00000000000;2930.00000000000;2911.00000000000;2865.00000000000;2799.00000000000;2683.00000000000;2679.00000000000;2660.00000000000;2585.00000000000;2539.00000000000;2537.00000000000;2462.00000000000;2433.00000000000;2370.00000000000;2389.00000000000;2452.00000000000;2463.00000000000;2526.00000000000;2482.00000000000;2495.00000000000;2577.00000000000;2638.00000000000;2654.00000000000;2536.00000000000;2614.00000000000;2668.00000000000;2808.00000000000;2827.00000000000;2823.00000000000;2814.00000000000;2675.00000000000;2739.00000000000;2859.00000000000;3013.00000000000;3123.00000000000;3018.00000000000;3049.00000000000;3118.00000000000;3015.00000000000;3079.00000000000;3164.00000000000;3274.00000000000;3122.00000000000;2975.00000000000;2906.00000000000;2992.00000000000;3087.00000000000;3121.00000000000;3040.00000000000;2955.00000000000;2863.00000000000;2820.00000000000;2890.00000000000;2898.00000000000;2889.00000000000;2860.00000000000;2814.00000000000;2844.00000000000;2844.00000000000;2855.00000000000;2833.00000000000;2830.00000000000;2820.00000000000;2824.00000000000;2835.00000000000;2832.00000000000;2864.00000000000;2817.00000000000;2838.00000000000;2866.00000000000;2862.00000000000;2891.00000000000;2876.00000000000;2875.00000000000;2866.00000000000;2870.00000000000;2892.00000000000;2894.00000000000;2901.00000000000;2891.00000000000;2871.00000000000;2894.00000000000;2858.00000000000;2849.00000000000;2853.00000000000;2880.00000000000
Gyro Y : 2079.00000000000;2112.00000000000;2116.00000000000;2100.00000000000;2142.00000000000;2122.00000000000;2117.00000000000;2129.00000000000;2125.00000000000;2096.00000000000;2125.00000000000;2125.00000000000;2118.00000000000;2133.00000000000;2135.00000000000;2133.00000000000;2126.00000000000;2138.00000000000;2131.00000000000;2118.00000000000;2126.00000000000;2141.00000000000;2111.00000000000;2115.00000000000;2110.00000000000;2127.00000000000;2127.00000000000;2147.00000000000;2129.00000000000;2133.00000000000;2136.00000000000;2142.00000000000;2117.00000000000;2143.00000000000;2111.00000000000;2148.00000000000;2145.00000000000;2147.00000000000;2142.00000000000;2130.00000000000;2148.00000000000;2152.00000000000;2166.00000000000;2147.00000000000;2133.00000000000;2153.00000000000;2161.00000000000;2186.00000000000;2217.00000000000;2230.00000000000;2261.00000000000;2275.00000000000;2345.00000000000;2387.00000000000;2444.00000000000;2519.00000000000;2520.00000000000;2606.00000000000;2628.00000000000;2685.00000000000;2615.00000000000;2670.00000000000;2643.00000000000;2646.00000000000;2663.00000000000;2653.00000000000;2632.00000000000;2599.00000000000;2529.00000000000;2475.00000000000;2414.00000000000;2346.00000000000;2239.00000000000;2127.00000000000;2023.00000000000;1997.00000000000;1908.00000000000;1871.00000000000;1845.00000000000;1816.00000000000;1821.00000000000;1854.00000000000;1855.00000000000;1800.00000000000;1791.00000000000;1840.00000000000;1941.00000000000;2046.00000000000;1963.00000000000;2023.00000000000;2083.00000000000;2151.00000000000;2156.00000000000;2223.00000000000;2345.00000000000;2434.00000000000;2532.00000000000;2540.00000000000;2669.00000000000;2757.00000000000;2704.00000000000;2684.00000000000;2715.00000000000;2741.00000000000;2739.00000000000;2699.00000000000;2627.00000000000;2650.00000000000;2553.00000000000;2523.00000000000;2473.00000000000;2405.00000000000;2379.00000000000;2343.00000000000;2330.00000000000;2295.00000000000;2295.00000000000;2283.00000000000;2269.00000000000;2255.00000000000;2245.00000000000;2209.00000000000;2195.00000000000;2180.00000000000;2210.00000000000;2174.00000000000;2176.00000000000;2164.00000000000;2137.00000000000;2131.00000000000;2130.00000000000;2129.00000000000;2115.00000000000;2109.00000000000;2111.00000000000;2089.00000000000;2120.00000000000;2135.00000000000;2114.00000000000;2137.00000000000;2137.00000000000;2128.00000000000;2152.00000000000;2176.00000000000;2165.00000000000;2135.00000000000;2148.00000000000;2135.00000000000;2164.00000000000;2176.00000000000
Gyro Z : 1912.00000000000;1943.00000000000;1919.00000000000;1919.00000000000;1889.00000000000;1916.00000000000;1906.00000000000;1915.00000000000;1909.00000000000;1891.00000000000;1883.00000000000;1889.00000000000;1905.00000000000;1899.00000000000;1896.00000000000;1889.00000000000;1910.00000000000;1915.00000000000;1910.00000000000;1897.00000000000;1905.00000000000;1909.00000000000;1919.00000000000;1904.00000000000;1904.00000000000;1906.00000000000;1913.00000000000;1901.00000000000;1917.00000000000;1901.00000000000;1913.00000000000;1904.00000000000;1888.00000000000;1918.00000000000;1874.00000000000;1910.00000000000;1893.00000000000;1900.00000000000;1893.00000000000;1895.00000000000;1894.00000000000;1911.00000000000;1910.00000000000;1913.00000000000;1907.00000000000;1955.00000000000;2011.00000000000;2055.00000000000;2085.00000000000;2190.00000000000;2240.00000000000;2324.00000000000;2361.00000000000;2399.00000000000;2435.00000000000;2555.00000000000;2487.00000000000;2480.00000000000;2399.00000000000;2332.00000000000;2195.00000000000;2117.00000000000;2085.00000000000;1952.00000000000;1816.00000000000;1648.00000000000;1540.00000000000;1488.00000000000;1379.00000000000;1213.00000000000;1148.00000000000;1035.00000000000;986.000000000000;968.000000000000;905.000000000000;869.000000000000;899.000000000000;883.000000000000;957.000000000000;998.000000000000;1048.00000000000;1088.00000000000;1134.00000000000;1147.00000000000;1160.00000000000;1223.00000000000;1225.00000000000;1173.00000000000;1178.00000000000;1203.00000000000;1275.00000000000;1319.00000000000;1301.00000000000;1344.00000000000;1318.00000000000;1371.00000000000;1452.00000000000;1530.00000000000;1694.00000000000;1770.00000000000;1984.00000000000;2079.00000000000;2025.00000000000;2234.00000000000;2443.00000000000;2524.00000000000;2401.00000000000;2345.00000000000;2425.00000000000;2449.00000000000;2419.00000000000;2373.00000000000;2299.00000000000;2255.00000000000;2140.00000000000;2047.00000000000;2013.00000000000;1963.00000000000;1913.00000000000;1876.00000000000;1813.00000000000;1793.00000000000;1749.00000000000;1724.00000000000;1701.00000000000;1684.00000000000;1692.00000000000;1692.00000000000;1677.00000000000;1694.00000000000;1687.00000000000;1713.00000000000;1721.00000000000;1725.00000000000;1737.00000000000;1716.00000000000;1730.00000000000;1743.00000000000;1759.00000000000;1775.00000000000;1787.00000000000;1772.00000000000;1768.00000000000;1766.00000000000;1777.00000000000;1783.00000000000;1770.00000000000;1790.00000000000;1789.00000000000;1798.00000000000
