COMMAND 2 SAMPLE 1
Accel X : 2905.00000000000;2910.00000000000;2906.00000000000;2881.00000000000;2903.00000000000;2879.00000000000;2848.00000000000;2847.00000000000;2832.00000000000;2821.00000000000;2818.00000000000;2793.00000000000;2796.00000000000;2792.00000000000;2821.00000000000;2839.00000000000;2818.00000000000;2794.00000000000;2824.00000000000;2828.00000000000;2833.00000000000;2865.00000000000;2846.00000000000;2857.00000000000;2851.00000000000;2871.00000000000;2881.00000000000;2881.00000000000;2861.00000000000;2859.00000000000;2846.00000000000;2850.00000000000;2838.00000000000;2844.00000000000;2818.00000000000;2834.00000000000;2848.00000000000;2833.00000000000;2828.00000000000;2834.00000000000;2871.00000000000;2835.00000000000;2865.00000000000;2901.00000000000;2931.00000000000;2906.00000000000;2869.00000000000;2796.00000000000;2848.00000000000;2929.00000000000;3019.00000000000;3023.00000000000;3024.00000000000;3079.00000000000;3100.00000000000;3028.00000000000;2906.00000000000;3015.00000000000;2977.00000000000;2999.00000000000;2947.00000000000;2911.00000000000;2876.00000000000;2753.00000000000;2994.00000000000;2827.00000000000;2814.00000000000;2743.00000000000;2677.00000000000;2604.00000000000;2562.00000000000;2533.00000000000;2556.00000000000;2547.00000000000;2531.00000000000;2409.00000000000;2433.00000000000;2346.00000000000;2357.00000000000;2420.00000000000;2515.00000000000;2538.00000000000;2608.00000000000;2625.00000000000;2577.00000000000;2507.00000000000;2595.00000000000;2708.00000000000;2733.00000000000;2703.00000000000;2711.00000000000;2717.00000000000;2825.00000000000;2894.00000000000;3010.00000000000;3055.00000000000;2989.00000000000;3032.00000000000;3120.00000000000;3200.00000000000;3234.00000000000;3189.00000000000;3110.00000000000;3055.00000000000;2814.00000000000;2966.00000000000;2996.00000000000;3079.00000000000;3079.00000000000;3044.00000000000;2955.00000000000;2988.00000000000;2935.00000000000;2908.00000000000;2936.00000000000;2934.00000000000;2899.00000000000;2877.00000000000;2890.00000000000;2874.00000000000;2874.00000000000;2827.00000000000;2801.00000000000;2830.00000000000;2816.00000000000;2836.00000000000;2821.00000000000;2838.00000000000;2816.00000000000;2829.00000000000;2855.00000000000;2887.00000000000;2882.00000000000;2849.00000000000;2849.00000000000;2836.00000000000;2851.00000000000;2869.00000000000;2841.00000000000;2827.00000000000;2845.00000000000;2856.00000000000;2871.00000000000;2899.00000000000;2894.00000000000;2875.00000000000;2872.00000000000;2865.00000000000;2899.00000000000;2884.00000000000
Accel Y : 2218.00000000000;2203.00000000000;2202.00000000000;2238.00000000000;2223.00000000000;2220.00000000000;2232.00000000000;2214.00000000000;2228.00000000000;2243.00000000000;2234.00000000000;2261.00000000000;2246.00000000000;2244.00000000000;2229.00000000000;2231.00000000000;2215.00000000000;2220.00000000000;2195.00000000000;2205.00000000000;2204.00000000000;2200.00000000000;2198.00000000000;2165.00000000000;2185.00000000000;2190.00000000000;2178.00000000000;2181.00000000000;2196.00000000000;2169.00000000000;2200.00000000000;2185.00000000000;2196.00000000000;2176.00000000000;2173.00000000000;2195.00000000000;2204.00000000000;2205.00000000000;2184.00000000000;2204.00000000000;2214.00000000000;2202.00000000000;2219.00000000000;2229.00000000000;2276.00000000000;2243.00000000000;2283.00000000000;2263.00000000000;2276.00000000000;2317.00000000000;2333.00000000000;2412.00000000000;2429.00000000000;2445.00000000000;2546.00000000000;2524.00000000000;2511.00000000000;2545.00000000000;2585.00000000000;2597.00000000000;2615.00000000000;2642.00000000000;2621.00000000000;2620.00000000000;2629.00000000000;2602.00000000000;2589.00000000000;2593.00000000000;2548.00000000000;2463.00000000000;2347.00000000000;2269.00000000000;2178.00000000000;2064.00000000000;1997.00000000000;1976.00000000000;1989.00000000000;1923.00000000000;1900.00000000000;1871.00000000000;1930.00000000000;1940.00000000000;1924.00000000000;1943.00000000000;2028.00000000000;2051.00000000000;2031.00000000000;2076.00000000000;2202.00000000000;2228.00000000000;2212.00000000000;2367.00000000000;2527.00000000000;2590.00000000000;2624.00000000000;2715.00000000000;2761.00000000000;2791.00000000000;2792.00000000000;2838.00000000000;2755.00000000000;2629.00000000000;2513.00000000000;2391.00000000000;2387.00000000000;2425.00000000000;2383.00000000000;2349.00000000000;2287.00000000000;2270.00000000000;2237.00000000000;2265.00000000000;2250.00000000000;2260.00000000000;2235.00000000000;2244.00000000000;2252.00000000000;2241.00000000000;2243.00000000000;2238.00000000000;2233.00000000000;2231.00000000000;2218.00000000000;2226.00000000000;2189.00000000000;2205.00000000000;2184.00000000000;2173.00000000000;2210.00000000000;2176.00000000000;2180.00000000000;2182.00000000000;2163.00000000000;2155.00000000000;2155.00000000000;2172.00000000000;2146.00000000000;2161.00000000000;2167.00000000000;2150.00000000000;2167.00000000000;2190.00000000000;2179.00000000000;2162.00000000000;2155.00000000000;2180.00000000000;2194.00000000000;2195.00000000000;2192.00000000000;2203.00000000000
Accel Z : 1878.00000000000;1865.00000000000;1863.00000000000;1857.00000000000;1845.00000000000;1843.00000000000;1844.00000000000;1824.00000000000;1808.00000000000;1819.00000000000;1815.00000000000;1821.00000000000;1824.00000000000;1830.00000000000;1818.00000000000;1820.00000000000;1814.00000000000;1806.00000000000;1839.00000000000;1851.00000000000;1841.00000000000;1872.00000000000;1863.00000000000;1852.00000000000;1845.00000000000;1865.00000000000;1869.00000000000;1881.00000000000;1840.00000000000;1847.00000000000;1851.00000000000;1843.00000000000;1850.00000000000;1848.00000000000;1876.00000000000;1852.00000000000;1853.00000000000;1868.00000000000;1862.00000000000;1885.00000000000;1891.00000000000;1905.00000000000;1927.00000000000;1972.00000000000;2047.00000000000;2127.00000000000;2221.00000000000;2211.00000000000;2266.00000000000;2325.00000000000;2422.00000000000;2495.00000000000;2501.00000000000;2531.00000000000;2507.00000000000;2447.00000000000;2457.00000000000;2387.00000000000;2284.00000000000;2258.00000000000;2221.00000000000;2015.00000000000;1975.00000000000;1940.00000000000;1754.00000000000;1506.00000000000;1426.00000000000;1408.00000000000;1320.00000000000;1138.00000000000;1073.00000000000;1003.00000000000;930.000000000000;846.000000000000;841.000000000000;884.000000000000;897.000000000000;842.000000000000;916.000000000000;965.000000000000;999.000000000000;1036.00000000000;1091.00000000000;1103.00000000000;1139.00000000000;1112.00000000000;1087.00000000000;1137.00000000000;1239.00000000000;1206.00000000000;1238.00000000000;1265.00000000000;1423.00000000000;1569.00000000000;1662.00000000000;1845.00000000000;2035.00000000000;2294.00000000000;2396.00000000000;2345.00000000000;2499.00000000000;2482.00000000000;2417.00000000000;2274.00000000000;2174.00000000000;2183.00000000000;2164.00000000000;2082.00000000000;2035.00000000000;1971.00000000000;1957.00000000000;1897.00000000000;1859.00000000000;1796.00000000000;1793.00000000000;1754.00000000000;1728.00000000000;1717.00000000000;1686.00000000000;1667.00000000000;1673.00000000000;1663.00000000000;1679.00000000000;1670.00000000000;1664.00000000000;1681.00000000000;1684.00000000000;1704.00000000000;1673.00000000000;1702.00000000000;1706.00000000000;1690.00000000000;1706.00000000000;1710.00000000000;1686.00000000000;1680.00000000000;1683.00000000000;1688.00000000000;1690.00000000000;1683.00000000000;1705.00000000000;1705.00000000000;1706.00000000000;1704.00000000000;1682.00000000000;1705.00000000000;1701.00000000000;1687.00000000000;1704.00000000000;1699.00000000000
Gyro X : 2905.00000000000;2910.00000000000;2906.00000000000;2881.00000000000;2903.00000000000;2879.00000000000;2848.00000000000;2847.00000000000;2832.00000000000;2821.00000000000;2818.00000000000;2793.00000000000;2796.00000000000;2792.00000000000;2821.00000000000;2839.00000000000;2818.00000000000;2794.00000000000;2824.00000000000;2828.00000000000;2833.00000000000;2865.00000000000;2846.00000000000;2857.00000000000;2851.00000000000;2871.00000000000;2881.00000000000;2881.00000000000;2861.00000000000;2859.00000000000;2846.00000000000;2850.00000000000;2838.00000000000;2844.00000000000;2818.00000000000;2834.00000000000;2848.00000000000;2833.00000000000;2828.00000000000;2834.00000000000;2871.00000000000;2835.00000000000;2865.00000000000;2901.00000000000;2931.00000000000;2906.00000000000;2869.00000000000;2796.00000000000;2848.00000000000;2929.00000000000;3019.00000000000;3023.00000000000;3024.00000000000;3079.00000000000;3100.00000000000;3028.00000000000;2906.00000000000;3015.00000000000;2977.00000000000;2999.00000000000;2947.00000000000;2911.00000000000;2876.00000000000;2753.00000000000;2994.00000000000;2827.00000000000;2814.00000000000;2743.00000000000;2677.00000000000;2604.00000000000;2562.00000000000;2533.00000000000;2556.00000000000;2547.00000000000;2531.00000000000;2409.00000000000;2433.00000000000;2346.00000000000;2357.00000000000;2420.00000000000;2515.00000000000;2538.00000000000;2608.00000000000;2625.00000000000;2577.00000000000;2507.00000000000;2595.00000000000;2708.00000000000;2733.00000000000;2703.00000000000;2711.00000000000;2717.00000000000;2825.00000000000;2894.00000000000;3010.00000000000;3055.00000000000;2989.00000000000;3032.00000000000;3120.00000000000;3200.00000000000;3234.00000000000;3189.00000000000;3110.00000000000;3055.00000000000;2814.00000000000;2966.00000000000;2996.00000000000;3079.00000000000;3079.00000000000;3044.00000000000;2955.00000000000;2988.00000000000;2935.00000000000;2908.00000000000;2936.00000000000;2934.00000000000;2899.00000000000;2877.00000000000;2890.00000000000;2874.00000000000;2874.00000000000;2827.00000000000;2801.00000000000;2830.00000000000;2816.00000000000;2836.00000000000;2821.00000000000;2838.00000000000;2816.00000000000;2829.00000000000;2855.00000000000;2887.00000000000;2882.00000000000;2849.00000000000;2849.00000000000;2836.00000000000;2851.00000000000;2869.00000000000;2841.00000000000;2827.00000000000;2845.00000000000;2856.00000000000;2871.00000000000;2899.00000000000;2894.00000000000;2875.00000000000;2872.00000000000;2865.00000000000;2899.00000000000;2884.00000000000
Gyro Y : 2218.00000000000;2203.00000000000;2202.00000000000;2238.00000000000;2223.00000000000;2220.00000000000;2232.00000000000;2214.00000000000;2228.00000000000;2243.00000000000;2234.00000000000;2261.00000000000;2246.00000000000;2244.00000000000;2229.00000000000;2231.00000000000;2215.00000000000;2220.00000000000;2195.00000000000;2205.00000000000;2204.00000000000;2200.00000000000;2198.00000000000;2165.00000000000;2185.00000000000;2190.00000000000;2178.00000000000;2181.00000000000;2196.00000000000;2169.00000000000;2200.00000000000;2185.00000000000;2196.00000000000;2176.00000000000;2173.00000000000;2195.00000000000;2204.00000000000;2205.00000000000;2184.00000000000;2204.00000000000;2214.00000000000;2202.00000000000;2219.00000000000;2229.00000000000;2276.00000000000;2243.00000000000;2283.00000000000;2263.00000000000;2276.00000000000;2317.00000000000;2333.00000000000;2412.00000000000;2429.00000000000;2445.00000000000;2546.00000000000;2524.00000000000;2511.00000000000;2545.00000000000;2585.00000000000;2597.00000000000;2615.00000000000;2642.00000000000;2621.00000000000;2620.00000000000;2629.00000000000;2602.00000000000;2589.00000000000;2593.00000000000;2548.00000000000;2463.00000000000;2347.00000000000;2269.00000000000;2178.00000000000;2064.00000000000;1997.00000000000;1976.00000000000;1989.00000000000;1923.00000000000;1900.00000000000;1871.00000000000;1930.00000000000;1940.00000000000;1924.00000000000;1943.00000000000;2028.00000000000;2051.00000000000;2031.00000000000;2076.00000000000;2202.00000000000;2228.00000000000;2212.00000000000;2367.00000000000;2527.00000000000;2590.00000000000;2624.00000000000;2715.00000000000;2761.00000000000;2791.00000000000;2792.00000000000;2838.00000000000;2755.00000000000;2629.00000000000;2513.00000000000;2391.00000000000;2387.00000000000;2425.00000000000;2383.00000000000;2349.00000000000;2287.00000000000;2270.00000000000;2237.00000000000;2265.00000000000;2250.00000000000;2260.00000000000;2235.00000000000;2244.00000000000;2252.00000000000;2241.00000000000;2243.00000000000;2238.00000000000;2233.00000000000;2231.00000000000;2218.00000000000;2226.00000000000;2189.00000000000;2205.00000000000;2184.00000000000;2173.00000000000;2210.00000000000;2176.00000000000;2180.00000000000;2182.00000000000;2163.00000000000;2155.00000000000;2155.00000000000;2172.00000000000;2146.00000000000;2161.00000000000;2167.00000000000;2150.00000000000;2167.00000000000;2190.00000000000;2179.00000000000;2162.00000000000;2155.00000000000;2180.00000000000;2194.00000000000;2195.00000000000;2192.00000000000;2203.00000000000
Gyro Z : 1878.00000000000;1865.00000000000;1863.00000000000;1857.00000000000;1845.00000000000;1843.00000000000;1844.00000000000;1824.00000000000;1808.00000000000;1819.00000000000;1815.00000000000;1821.00000000000;1824.00000000000;1830.00000000000;1818.00000000000;1820.00000000000;1814.00000000000;1806.00000000000;1839.00000000000;1851.00000000000;1841.00000000000;1872.00000000000;1863.00000000000;1852.00000000000;1845.00000000000;1865.00000000000;1869.00000000000;1881.00000000000;1840.00000000000;1847.00000000000;1851.00000000000;1843.00000000000;1850.00000000000;1848.00000000000;1876.00000000000;1852.00000000000;1853.00000000000;1868.00000000000;1862.00000000000;1885.00000000000;1891.00000000000;1905.00000000000;1927.00000000000;1972.00000000000;2047.00000000000;2127.00000000000;2221.00000000000;2211.00000000000;2266.00000000000;2325.00000000000;2422.00000000000;2495.00000000000;2501.00000000000;2531.00000000000;2507.00000000000;2447.00000000000;2457.00000000000;2387.00000000000;2284.00000000000;2258.00000000000;2221.00000000000;2015.00000000000;1975.00000000000;1940.00000000000;1754.00000000000;1506.00000000000;1426.00000000000;1408.00000000000;1320.00000000000;1138.00000000000;1073.00000000000;1003.00000000000;930.000000000000;846.000000000000;841.000000000000;884.000000000000;897.000000000000;842.000000000000;916.000000000000;965.000000000000;999.000000000000;1036.00000000000;1091.00000000000;1103.00000000000;1139.00000000000;1112.00000000000;1087.00000000000;1137.00000000000;1239.00000000000;1206.00000000000;1238.00000000000;1265.00000000000;1423.00000000000;1569.00000000000;1662.00000000000;1845.00000000000;2035.00000000000;2294.00000000000;2396.00000000000;2345.00000000000;2499.00000000000;2482.00000000000;2417.00000000000;2274.00000000000;2174.00000000000;2183.00000000000;2164.00000000000;2082.00000000000;2035.00000000000;1971.00000000000;1957.00000000000;1897.00000000000;1859.00000000000;1796.00000000000;1793.00000000000;1754.00000000000;1728.00000000000;1717.00000000000;1686.00000000000;1667.00000000000;1673.00000000000;1663.00000000000;1679.00000000000;1670.00000000000;1664.00000000000;1681.00000000000;1684.00000000000;1704.00000000000;1673.00000000000;1702.00000000000;1706.00000000000;1690.00000000000;1706.00000000000;1710.00000000000;1686.00000000000;1680.00000000000;1683.00000000000;1688.00000000000;1690.00000000000;1683.00000000000;1705.00000000000;1705.00000000000;1706.00000000000;1704.00000000000;1682.00000000000;1705.00000000000;1701.00000000000;1687.00000000000;1704.00000000000;1699.00000000000
