COMMAND 1 SAMPLE 1
Accel X : 2815.00000000000;2838.00000000000;2832.00000000000;2832.00000000000;2830.00000000000;2819.00000000000;2824.00000000000;2836.00000000000;2835.00000000000;2839.00000000000;2830.00000000000;2841.00000000000;2841.00000000000;2842.00000000000;2834.00000000000;2826.00000000000;2865.00000000000;2838.00000000000;2847.00000000000;2845.00000000000;2851.00000000000;2847.00000000000;2842.00000000000;2837.00000000000;2816.00000000000;2844.00000000000;2842.00000000000;2855.00000000000;2832.00000000000;2843.00000000000;2851.00000000000;2853.00000000000;2837.00000000000;2842.00000000000;2846.00000000000;2842.00000000000;2833.00000000000;2857.00000000000;2853.00000000000;2876.00000000000;2895.00000000000;2927.00000000000;2922.00000000000;2905.00000000000;2979.00000000000;3023.00000000000;3053.00000000000;3103.00000000000;3090.00000000000;3171.00000000000;3250.00000000000;3204.00000000000;3168.00000000000;3204.00000000000;3184.00000000000;3108.00000000000;3101.00000000000;3103.00000000000;3016.00000000000;2930.00000000000;2671.00000000000;2391.00000000000;2202.00000000000;1931.00000000000;1660.00000000000;1436.00000000000;1340.00000000000;1111.00000000000;1188.00000000000;944.000000000000;753.000000000000;717.000000000000;749.000000000000;817.000000000000;941.000000000000;1145.00000000000;1381.00000000000;1585.00000000000;1726.00000000000;1878.00000000000;2016.00000000000;2214.00000000000;2388.00000000000;2199.00000000000;2137.00000000000;3633.00000000000;4078.00000000000;3485.00000000000;3407.00000000000;3153.00000000000;3071.00000000000;3299.00000000000;3323.00000000000;3258.00000000000;3036.00000000000;2823.00000000000;2710.00000000000;2657.00000000000;2645.00000000000;2570.00000000000;2450.00000000000;2471.00000000000;2663.00000000000;2656.00000000000;2656.00000000000;2679.00000000000;2742.00000000000;2990.00000000000;3143.00000000000;2985.00000000000;3098.00000000000;3211.00000000000;3299.00000000000;3359.00000000000;3357.00000000000;3346.00000000000;3257.00000000000;3151.00000000000;2958.00000000000;2872.00000000000;2859.00000000000;2807.00000000000;2848.00000000000;2854.00000000000;2877.00000000000;2781.00000000000;2809.00000000000;2820.00000000000;2883.00000000000;2882.00000000000;2914.00000000000;2954.00000000000;2937.00000000000;2848.00000000000;2843.00000000000;2861.00000000000;2855.00000000000;2851.00000000000;2832.00000000000;2871.00000000000;2861.00000000000;2858.00000000000;2827.00000000000;2827.00000000000;2886.00000000000;2906.00000000000;2918.00000000000;2930.00000000000;2893.00000000000;2883.00000000000
Accel Y : 2165.00000000000;2168.00000000000;2172.00000000000;2175.00000000000;2193.00000000000;2174.00000000000;2172.00000000000;2155.00000000000;2165.00000000000;2174.00000000000;2173.00000000000;2175.00000000000;2195.00000000000;2175.00000000000;2174.00000000000;2163.00000000000;2171.00000000000;2164.00000000000;2174.00000000000;2162.00000000000;2157.00000000000;2163.00000000000;2163.00000000000;2177.00000000000;2165.00000000000;2173.00000000000;2177.00000000000;2163.00000000000;2161.00000000000;2169.00000000000;2153.00000000000;2161.00000000000;2163.00000000000;2184.00000000000;2162.00000000000;2175.00000000000;2163.00000000000;2179.00000000000;2182.00000000000;2183.00000000000;2194.00000000000;2188.00000000000;2209.00000000000;2209.00000000000;2217.00000000000;2229.00000000000;2243.00000000000;2265.00000000000;2252.00000000000;2245.00000000000;2223.00000000000;2162.00000000000;2095.00000000000;2019.00000000000;1959.00000000000;1806.00000000000;1659.00000000000;1561.00000000000;1571.00000000000;1547.00000000000;1465.00000000000;1460.00000000000;1479.00000000000;1515.00000000000;1539.00000000000;1539.00000000000;1495.00000000000;1375.00000000000;1359.00000000000;1400.00000000000;1396.00000000000;1373.00000000000;1440.00000000000;1466.00000000000;1504.00000000000;1519.00000000000;1604.00000000000;1668.00000000000;1701.00000000000;1771.00000000000;1831.00000000000;1916.00000000000;2117.00000000000;2351.00000000000;2595.00000000000;2925.00000000000;2666.00000000000;2402.00000000000;2408.00000000000;2412.00000000000;2234.00000000000;2087.00000000000;2021.00000000000;2090.00000000000;2169.00000000000;2174.00000000000;2156.00000000000;2190.00000000000;2235.00000000000;2259.00000000000;2184.00000000000;2085.00000000000;2063.00000000000;2079.00000000000;2108.00000000000;2029.00000000000;1815.00000000000;1654.00000000000;1663.00000000000;1807.00000000000;1829.00000000000;1674.00000000000;1610.00000000000;1603.00000000000;1653.00000000000;1809.00000000000;1850.00000000000;1931.00000000000;1956.00000000000;2021.00000000000;2141.00000000000;2111.00000000000;2153.00000000000;2157.00000000000;2143.00000000000;2150.00000000000;2145.00000000000;2178.00000000000;2173.00000000000;2205.00000000000;2154.00000000000;2146.00000000000;2135.00000000000;2120.00000000000;2093.00000000000;2101.00000000000;2079.00000000000;2060.00000000000;2104.00000000000;2095.00000000000;2115.00000000000;2105.00000000000;2131.00000000000;2132.00000000000;2147.00000000000;2180.00000000000;2187.00000000000;2203.00000000000;2203.00000000000;2195.00000000000
Accel Z : 1923.00000000000;1960.00000000000;1939.00000000000;1940.00000000000;1949.00000000000;1948.00000000000;1956.00000000000;1934.00000000000;1971.00000000000;1938.00000000000;1951.00000000000;1946.00000000000;1948.00000000000;1966.00000000000;1941.00000000000;1934.00000000000;1949.00000000000;1966.00000000000;1932.00000000000;1948.00000000000;1953.00000000000;1935.00000000000;1935.00000000000;1948.00000000000;1948.00000000000;1954.00000000000;1947.00000000000;1952.00000000000;1944.00000000000;1953.00000000000;1925.00000000000;1970.00000000000;1951.00000000000;1954.00000000000;1921.00000000000;1951.00000000000;1943.00000000000;1950.00000000000;1946.00000000000;1965.00000000000;1937.00000000000;1956.00000000000;1946.00000000000;1952.00000000000;1984.00000000000;1996.00000000000;2000.00000000000;2049.00000000000;2062.00000000000;2097.00000000000;2119.00000000000;2112.00000000000;2170.00000000000;2235.00000000000;2271.00000000000;2208.00000000000;2217.00000000000;2214.00000000000;2195.00000000000;2125.00000000000;2026.00000000000;1969.00000000000;1940.00000000000;1856.00000000000;1859.00000000000;1772.00000000000;1731.00000000000;1679.00000000000;1642.00000000000;1638.00000000000;1655.00000000000;1696.00000000000;1747.00000000000;1695.00000000000;1667.00000000000;1663.00000000000;1686.00000000000;1773.00000000000;1751.00000000000;1786.00000000000;1715.00000000000;1666.00000000000;1647.00000000000;1792.00000000000;1841.00000000000;1398.00000000000;1483.00000000000;1449.00000000000;1921.00000000000;2145.00000000000;2125.00000000000;2063.00000000000;2033.00000000000;2018.00000000000;1976.00000000000;1936.00000000000;1944.00000000000;1902.00000000000;1870.00000000000;1840.00000000000;1799.00000000000;1806.00000000000;1777.00000000000;1819.00000000000;1908.00000000000;1888.00000000000;1827.00000000000;1787.00000000000;1775.00000000000;1753.00000000000;1897.00000000000;1883.00000000000;1815.00000000000;1808.00000000000;1815.00000000000;2012.00000000000;2030.00000000000;1961.00000000000;1877.00000000000;1872.00000000000;1905.00000000000;1893.00000000000;1884.00000000000;1852.00000000000;1844.00000000000;1794.00000000000;1783.00000000000;1830.00000000000;1852.00000000000;1845.00000000000;1794.00000000000;1765.00000000000;1803.00000000000;1844.00000000000;1852.00000000000;1839.00000000000;1804.00000000000;1836.00000000000;1861.00000000000;1875.00000000000;1860.00000000000;1884.00000000000;1864.00000000000;1886.00000000000;1882.00000000000;1881.00000000000;1883.00000000000;1870.00000000000;1909.00000000000;1887.00000000000
Gyro X : 2815.00000000000;2838.00000000000;2832.00000000000;2832.00000000000;2830.00000000000;2819.00000000000;2824.00000000000;2836.00000000000;2835.00000000000;2839.00000000000;2830.00000000000;2841.00000000000;2841.00000000000;2842.00000000000;2834.00000000000;2826.00000000000;2865.00000000000;2838.00000000000;2847.00000000000;2845.00000000000;2851.00000000000;2847.00000000000;2842.00000000000;2837.00000000000;2816.00000000000;2844.00000000000;2842.00000000000;2855.00000000000;2832.00000000000;2843.00000000000;2851.00000000000;2853.00000000000;2837.00000000000;2842.00000000000;2846.00000000000;2842.00000000000;2833.00000000000;2857.00000000000;2853.00000000000;2876.00000000000;2895.00000000000;2927.00000000000;2922.00000000000;2905.00000000000;2979.00000000000;3023.00000000000;3053.00000000000;3103.00000000000;3090.00000000000;3171.00000000000;3250.00000000000;3204.00000000000;3168.00000000000;3204.00000000000;3184.00000000000;3108.00000000000;3101.00000000000;3103.00000000000;3016.00000000000;2930.00000000000;2671.00000000000;2391.00000000000;2202.00000000000;1931.00000000000;1660.00000000000;1436.00000000000;1340.00000000000;1111.00000000000;1188.00000000000;944.000000000000;753.000000000000;717.000000000000;749.000000000000;817.000000000000;941.000000000000;1145.00000000000;1381.00000000000;1585.00000000000;1726.00000000000;1878.00000000000;2016.00000000000;2214.00000000000;2388.00000000000;2199.00000000000;2137.00000000000;3633.00000000000;4078.00000000000;3485.00000000000;3407.00000000000;3153.00000000000;3071.00000000000;3299.00000000000;3323.00000000000;3258.00000000000;3036.00000000000;2823.00000000000;2710.00000000000;2657.00000000000;2645.00000000000;2570.00000000000;2450.00000000000;2471.00000000000;2663.00000000000;2656.00000000000;2656.00000000000;2679.00000000000;2742.00000000000;2990.00000000000;3143.00000000000;2985.00000000000;3098.00000000000;3211.00000000000;3299.00000000000;3359.00000000000;3357.00000000000;3346.00000000000;3257.00000000000;3151.00000000000;2958.00000000000;2872.00000000000;2859.00000000000;2807.00000000000;2848.00000000000;2854.00000000000;2877.00000000000;2781.00000000000;2809.00000000000;2820.00000000000;2883.00000000000;2882.00000000000;2914.00000000000;2954.00000000000;2937.00000000000;2848.00000000000;2843.00000000000;2861.00000000000;2855.00000000000;2851.00000000000;2832.00000000000;2871.00000000000;2861.00000000000;2858.00000000000;2827.00000000000;2827.00000000000;2886.00000000000;2906.00000000000;2918.00000000000;2930.00000000000;2893.00000000000;2883.00000000000
Gyro Y : 2165.00000000000;2168.00000000000;2172.00000000000;2175.00000000000;2193.00000000000;2174.00000000000;2172.00000000000;2155.00000000000;2165.00000000000;2174.00000000000;2173.00000000000;2175.00000000000;2195.00000000000;2175.00000000000;2174.00000000000;2163.00000000000;2171.00000000000;2164.00000000000;2174.00000000000;2162.00000000000;2157.00000000000;2163.00000000000;2163.00000000000;2177.00000000000;2165.00000000000;2173.00000000000;2177.00000000000;2163.00000000000;2161.00000000000;2169.00000000000;2153.00000000000;2161.00000000000;2163.00000000000;2184.00000000000;2162.00000000000;2175.00000000000;2163.00000000000;2179.00000000000;2182.00000000000;2183.00000000000;2194.00000000000;2188.00000000000;2209.00000000000;2209.00000000000;2217.00000000000;2229.00000000000;2243.00000000000;2265.00000000000;2252.00000000000;2245.00000000000;2223.00000000000;2162.00000000000;2095.00000000000;2019.00000000000;1959.00000000000;1806.00000000000;1659.00000000000;1561.00000000000;1571.00000000000;1547.00000000000;1465.00000000000;1460.00000000000;1479.00000000000;1515.00000000000;1539.00000000000;1539.00000000000;1495.00000000000;1375.00000000000;1359.00000000000;1400.00000000000;1396.00000000000;1373.00000000000;1440.00000000000;1466.00000000000;1504.00000000000;1519.00000000000;1604.00000000000;1668.00000000000;1701.00000000000;1771.00000000000;1831.00000000000;1916.00000000000;2117.00000000000;2351.00000000000;2595.00000000000;2925.00000000000;2666.00000000000;2402.00000000000;2408.00000000000;2412.00000000000;2234.00000000000;2087.00000000000;2021.00000000000;2090.00000000000;2169.00000000000;2174.00000000000;2156.00000000000;2190.00000000000;2235.00000000000;2259.00000000000;2184.00000000000;2085.00000000000;2063.00000000000;2079.00000000000;2108.00000000000;2029.00000000000;1815.00000000000;1654.00000000000;1663.00000000000;1807.00000000000;1829.00000000000;1674.00000000000;1610.00000000000;1603.00000000000;1653.00000000000;1809.00000000000;1850.00000000000;1931.00000000000;1956.00000000000;2021.00000000000;2141.00000000000;2111.00000000000;2153.00000000000;2157.00000000000;2143.00000000000;2150.00000000000;2145.00000000000;2178.00000000000;2173.00000000000;2205.00000000000;2154.00000000000;2146.00000000000;2135.00000000000;2120.00000000000;2093.00000000000;2101.00000000000;2079.00000000000;2060.00000000000;2104.00000000000;2095.00000000000;2115.00000000000;2105.00000000000;2131.00000000000;2132.00000000000;2147.00000000000;2180.00000000000;2187.00000000000;2203.00000000000;2203.00000000000;2195.00000000000
Gyro Z : 1923.00000000000;1960.00000000000;1939.00000000000;1940.00000000000;1949.00000000000;1948.00000000000;1956.00000000000;1934.00000000000;1971.00000000000;1938.00000000000;1951.00000000000;1946.00000000000;1948.00000000000;1966.00000000000;1941.00000000000;1934.00000000000;1949.00000000000;1966.00000000000;1932.00000000000;1948.00000000000;1953.00000000000;1935.00000000000;1935.00000000000;1948.00000000000;1948.00000000000;1954.00000000000;1947.00000000000;1952.00000000000;1944.00000000000;1953.00000000000;1925.00000000000;1970.00000000000;1951.00000000000;1954.00000000000;1921.00000000000;1951.00000000000;1943.00000000000;1950.00000000000;1946.00000000000;1965.00000000000;1937.00000000000;1956.00000000000;1946.00000000000;1952.00000000000;1984.00000000000;1996.00000000000;2000.00000000000;2049.00000000000;2062.00000000000;2097.00000000000;2119.00000000000;2112.00000000000;2170.00000000000;2235.00000000000;2271.00000000000;2208.00000000000;2217.00000000000;2214.00000000000;2195.00000000000;2125.00000000000;2026.00000000000;1969.00000000000;1940.00000000000;1856.00000000000;1859.00000000000;1772.00000000000;1731.00000000000;1679.00000000000;1642.00000000000;1638.00000000000;1655.00000000000;1696.00000000000;1747.00000000000;1695.00000000000;1667.00000000000;1663.00000000000;1686.00000000000;1773.00000000000;1751.00000000000;1786.00000000000;1715.00000000000;1666.00000000000;1647.00000000000;1792.00000000000;1841.00000000000;1398.00000000000;1483.00000000000;1449.00000000000;1921.00000000000;2145.00000000000;2125.00000000000;2063.00000000000;2033.00000000000;2018.00000000000;1976.00000000000;1936.00000000000;1944.00000000000;1902.00000000000;1870.00000000000;1840.00000000000;1799.00000000000;1806.00000000000;1777.00000000000;1819.00000000000;1908.00000000000;1888.00000000000;1827.00000000000;1787.00000000000;1775.00000000000;1753.00000000000;1897.00000000000;1883.00000000000;1815.00000000000;1808.00000000000;1815.00000000000;2012.00000000000;2030.00000000000;1961.00000000000;1877.00000000000;1872.00000000000;1905.00000000000;1893.00000000000;1884.00000000000;1852.00000000000;1844.00000000000;1794.00000000000;1783.00000000000;1830.00000000000;1852.00000000000;1845.00000000000;1794.00000000000;1765.00000000000;1803.00000000000;1844.00000000000;1852.00000000000;1839.00000000000;1804.00000000000;1836.00000000000;1861.00000000000;1875.00000000000;1860.00000000000;1884.00000000000;1864.00000000000;1886.00000000000;1882.00000000000;1881.00000000000;1883.00000000000;1870.00000000000;1909.00000000000;1887.00000000000
