COMMAND 5 SAMPLE 1
Accel X : 2941.00000000000;2935.00000000000;2919.00000000000;2882.00000000000;2882.00000000000;2900.00000000000;2891.00000000000;2877.00000000000;2881.00000000000;2887.00000000000;2892.00000000000;2845.00000000000;2848.00000000000;2861.00000000000;2807.00000000000;2838.00000000000;2860.00000000000;2851.00000000000;2869.00000000000;2881.00000000000;2852.00000000000;2849.00000000000;2854.00000000000;2872.00000000000;2846.00000000000;2862.00000000000;2833.00000000000;2853.00000000000;2846.00000000000;2838.00000000000;2848.00000000000;2851.00000000000;2862.00000000000;2864.00000000000;2841.00000000000;2849.00000000000;2858.00000000000;2835.00000000000;2832.00000000000;2836.00000000000;2864.00000000000;2856.00000000000;2842.00000000000;2845.00000000000;2844.00000000000;2847.00000000000;2858.00000000000;2861.00000000000;2867.00000000000;2862.00000000000;2863.00000000000;2868.00000000000;2865.00000000000;2854.00000000000;2881.00000000000;2883.00000000000;2863.00000000000;2866.00000000000;2867.00000000000;2878.00000000000;2864.00000000000;2856.00000000000;2870.00000000000;2871.00000000000;2869.00000000000;2859.00000000000;2843.00000000000;2850.00000000000;2819.00000000000;2851.00000000000;2860.00000000000;2864.00000000000;2873.00000000000;2861.00000000000;2859.00000000000;2845.00000000000;2858.00000000000;2880.00000000000;2873.00000000000;2862.00000000000;2881.00000000000;2855.00000000000;2861.00000000000;2850.00000000000;2858.00000000000;2847.00000000000;2870.00000000000;2846.00000000000;2846.00000000000;2859.00000000000;2870.00000000000;2854.00000000000;2871.00000000000;2897.00000000000;2877.00000000000;2850.00000000000;2878.00000000000;2871.00000000000;2872.00000000000;2884.00000000000;2857.00000000000;2885.00000000000;2908.00000000000;2878.00000000000;2873.00000000000;2878.00000000000;2871.00000000000;2850.00000000000;2875.00000000000;2848.00000000000;2863.00000000000;2878.00000000000;2863.00000000000;2871.00000000000;2873.00000000000;2874.00000000000;2846.00000000000;2872.00000000000;2846.00000000000;2849.00000000000;2845.00000000000;2859.00000000000;2857.00000000000;2851.00000000000;2840.00000000000;2846.00000000000;2845.00000000000;2860.00000000000;2862.00000000000;2857.00000000000;2873.00000000000;2863.00000000000;2872.00000000000;2869.00000000000;2871.00000000000;2877.00000000000;2875.00000000000;2860.00000000000;2861.00000000000;2868.00000000000;2874.00000000000;2873.00000000000;2858.00000000000;2842.00000000000;2884.00000000000;2873.00000000000;2891.00000000000;2857.00000000000;2846.00000000000;2865.00000000000
Accel Y : 2151.00000000000;2167.00000000000;2151.00000000000;2166.00000000000;2179.00000000000;2172.00000000000;2183.00000000000;2205.00000000000;2188.00000000000;2175.00000000000;2168.00000000000;2170.00000000000;2131.00000000000;2126.00000000000;2090.00000000000;2103.00000000000;2087.00000000000;2076.00000000000;2053.00000000000;2060.00000000000;2062.00000000000;2044.00000000000;2044.00000000000;2039.00000000000;2045.00000000000;2052.00000000000;2051.00000000000;2042.00000000000;2031.00000000000;2025.00000000000;2033.00000000000;2018.00000000000;2028.00000000000;2027.00000000000;2012.00000000000;2031.00000000000;2022.00000000000;2032.00000000000;2014.00000000000;2023.00000000000;2009.00000000000;2024.00000000000;1996.00000000000;2022.00000000000;2030.00000000000;2027.00000000000;2017.00000000000;2027.00000000000;2009.00000000000;2025.00000000000;2016.00000000000;2018.00000000000;2022.00000000000;2002.00000000000;2029.00000000000;1976.00000000000;2015.00000000000;2021.00000000000;2021.00000000000;2013.00000000000;2014.00000000000;2017.00000000000;2020.00000000000;2004.00000000000;2022.00000000000;2019.00000000000;2030.00000000000;2017.00000000000;2015.00000000000;2011.00000000000;2011.00000000000;2010.00000000000;2033.00000000000;2015.00000000000;2022.00000000000;2018.00000000000;2016.00000000000;2007.00000000000;2025.00000000000;2025.00000000000;1995.00000000000;1991.00000000000;2009.00000000000;1993.00000000000;2009.00000000000;2001.00000000000;2020.00000000000;2002.00000000000;2013.00000000000;2021.00000000000;2005.00000000000;2015.00000000000;2001.00000000000;1984.00000000000;1992.00000000000;1989.00000000000;2022.00000000000;2003.00000000000;2015.00000000000;2015.00000000000;2010.00000000000;2005.00000000000;2005.00000000000;1987.00000000000;2023.00000000000;1997.00000000000;2008.00000000000;1991.00000000000;1985.00000000000;2001.00000000000;1999.00000000000;1984.00000000000;2022.00000000000;1978.00000000000;1995.00000000000;1987.00000000000;1991.00000000000;1978.00000000000;1974.00000000000;1993.00000000000;1974.00000000000;1964.00000000000;1965.00000000000;1974.00000000000;1975.00000000000;1974.00000000000;1975.00000000000;1975.00000000000;1985.00000000000;1983.00000000000;1970.00000000000;1988.00000000000;1975.00000000000;1983.00000000000;1990.00000000000;1986.00000000000;1991.00000000000;1985.00000000000;2031.00000000000;1983.00000000000;1985.00000000000;1985.00000000000;2012.00000000000;2019.00000000000;2014.00000000000;1992.00000000000;2009.00000000000;1995.00000000000;2012.00000000000;2006.00000000000
Accel Z : 1942.00000000000;1945.00000000000;1909.00000000000;1914.00000000000;1888.00000000000;1880.00000000000;1853.00000000000;1875.00000000000;1882.00000000000;1878.00000000000;1885.00000000000;1887.00000000000;1862.00000000000;1865.00000000000;1875.00000000000;1840.00000000000;1853.00000000000;1860.00000000000;1847.00000000000;1853.00000000000;1855.00000000000;1863.00000000000;1853.00000000000;1843.00000000000;1850.00000000000;1845.00000000000;1880.00000000000;1862.00000000000;1854.00000000000;1863.00000000000;1867.00000000000;1855.00000000000;1850.00000000000;1858.00000000000;1899.00000000000;1859.00000000000;1871.00000000000;1877.00000000000;1882.00000000000;1889.00000000000;1878.00000000000;1862.00000000000;1885.00000000000;1871.00000000000;1882.00000000000;1882.00000000000;1853.00000000000;1855.00000000000;1855.00000000000;1880.00000000000;1870.00000000000;1871.00000000000;1893.00000000000;1848.00000000000;1886.00000000000;1858.00000000000;1861.00000000000;1875.00000000000;1868.00000000000;1869.00000000000;1860.00000000000;1845.00000000000;1866.00000000000;1869.00000000000;1875.00000000000;1855.00000000000;1876.00000000000;1873.00000000000;1869.00000000000;1880.00000000000;1880.00000000000;1855.00000000000;1880.00000000000;1885.00000000000;1878.00000000000;1863.00000000000;1883.00000000000;1878.00000000000;1862.00000000000;1857.00000000000;1882.00000000000;1857.00000000000;1872.00000000000;1867.00000000000;1869.00000000000;1868.00000000000;1860.00000000000;1872.00000000000;1862.00000000000;1845.00000000000;1862.00000000000;1872.00000000000;1871.00000000000;1859.00000000000;1877.00000000000;1870.00000000000;1905.00000000000;1851.00000000000;1859.00000000000;1861.00000000000;1870.00000000000;1876.00000000000;1871.00000000000;1870.00000000000;1845.00000000000;1860.00000000000;1888.00000000000;1874.00000000000;1873.00000000000;1853.00000000000;1868.00000000000;1861.00000000000;1862.00000000000;1845.00000000000;1876.00000000000;1864.00000000000;1846.00000000000;1838.00000000000;1848.00000000000;1844.00000000000;1844.00000000000;1864.00000000000;1851.00000000000;1847.00000000000;1845.00000000000;1847.00000000000;1850.00000000000;1833.00000000000;1842.00000000000;1861.00000000000;1878.00000000000;1859.00000000000;1849.00000000000;1859.00000000000;1858.00000000000;1845.00000000000;1850.00000000000;1869.00000000000;1862.00000000000;1850.00000000000;1879.00000000000;1832.00000000000;1870.00000000000;1840.00000000000;1844.00000000000;1838.00000000000;1823.00000000000;1849.00000000000;1833.00000000000;1856.00000000000
Gyro X : 2941.00000000000;2935.00000000000;2919.00000000000;2882.00000000000;2882.00000000000;2900.00000000000;2891.00000000000;2877.00000000000;2881.00000000000;2887.00000000000;2892.00000000000;2845.00000000000;2848.00000000000;2861.00000000000;2807.00000000000;2838.00000000000;2860.00000000000;2851.00000000000;2869.00000000000;2881.00000000000;2852.00000000000;2849.00000000000;2854.00000000000;2872.00000000000;2846.00000000000;2862.00000000000;2833.00000000000;2853.00000000000;2846.00000000000;2838.00000000000;2848.00000000000;2851.00000000000;2862.00000000000;2864.00000000000;2841.00000000000;2849.00000000000;2858.00000000000;2835.00000000000;2832.00000000000;2836.00000000000;2864.00000000000;2856.00000000000;2842.00000000000;2845.00000000000;2844.00000000000;2847.00000000000;2858.00000000000;2861.00000000000;2867.00000000000;2862.00000000000;2863.00000000000;2868.00000000000;2865.00000000000;2854.00000000000;2881.00000000000;2883.00000000000;2863.00000000000;2866.00000000000;2867.00000000000;2878.00000000000;2864.00000000000;2856.00000000000;2870.00000000000;2871.00000000000;2869.00000000000;2859.00000000000;2843.00000000000;2850.00000000000;2819.00000000000;2851.00000000000;2860.00000000000;2864.00000000000;2873.00000000000;2861.00000000000;2859.00000000000;2845.00000000000;2858.00000000000;2880.00000000000;2873.00000000000;2862.00000000000;2881.00000000000;2855.00000000000;2861.00000000000;2850.00000000000;2858.00000000000;2847.00000000000;2870.00000000000;2846.00000000000;2846.00000000000;2859.00000000000;2870.00000000000;2854.00000000000;2871.00000000000;2897.00000000000;2877.00000000000;2850.00000000000;2878.00000000000;2871.00000000000;2872.00000000000;2884.00000000000;2857.00000000000;2885.00000000000;2908.00000000000;2878.00000000000;2873.00000000000;2878.00000000000;2871.00000000000;2850.00000000000;2875.00000000000;2848.00000000000;2863.00000000000;2878.00000000000;2863.00000000000;2871.00000000000;2873.00000000000;2874.00000000000;2846.00000000000;2872.00000000000;2846.00000000000;2849.00000000000;2845.00000000000;2859.00000000000;2857.00000000000;2851.00000000000;2840.00000000000;2846.00000000000;2845.00000000000;2860.00000000000;2862.00000000000;2857.00000000000;2873.00000000000;2863.00000000000;2872.00000000000;2869.00000000000;2871.00000000000;2877.00000000000;2875.00000000000;2860.00000000000;2861.00000000000;2868.00000000000;2874.00000000000;2873.00000000000;2858.00000000000;2842.00000000000;2884.00000000000;2873.00000000000;2891.00000000000;2857.00000000000;2846.00000000000;2865.00000000000
Gyro Y : 2151.00000000000;2167.00000000000;2151.00000000000;2166.00000000000;2179.00000000000;2172.00000000000;2183.00000000000;2205.00000000000;2188.00000000000;2175.00000000000;2168.00000000000;2170.00000000000;2131.00000000000;2126.00000000000;2090.00000000000;2103.00000000000;2087.00000000000;2076.00000000000;2053.00000000000;2060.00000000000;2062.00000000000;2044.00000000000;2044.00000000000;2039.00000000000;2045.00000000000;2052.00000000000;2051.00000000000;2042.00000000000;2031.00000000000;2025.00000000000;2033.00000000000;2018.00000000000;2028.00000000000;2027.00000000000;2012.00000000000;2031.00000000000;2022.00000000000;2032.00000000000;2014.00000000000;2023.00000000000;2009.00000000000;2024.00000000000;1996.00000000000;2022.00000000000;2030.00000000000;2027.00000000000;2017.00000000000;2027.00000000000;2009.00000000000;2025.00000000000;2016.00000000000;2018.00000000000;2022.00000000000;2002.00000000000;2029.00000000000;1976.00000000000;2015.00000000000;2021.00000000000;2021.00000000000;2013.00000000000;2014.00000000000;2017.00000000000;2020.00000000000;2004.00000000000;2022.00000000000;2019.00000000000;2030.00000000000;2017.00000000000;2015.00000000000;2011.00000000000;2011.00000000000;2010.00000000000;2033.00000000000;2015.00000000000;2022.00000000000;2018.00000000000;2016.00000000000;2007.00000000000;2025.00000000000;2025.00000000000;1995.00000000000;1991.00000000000;2009.00000000000;1993.00000000000;2009.00000000000;2001.00000000000;2020.00000000000;2002.00000000000;2013.00000000000;2021.00000000000;2005.00000000000;2015.00000000000;2001.00000000000;1984.00000000000;1992.00000000000;1989.00000000000;2022.00000000000;2003.00000000000;2015.00000000000;2015.00000000000;2010.00000000000;2005.00000000000;2005.00000000000;1987.00000000000;2023.00000000000;1997.00000000000;2008.00000000000;1991.00000000000;1985.00000000000;2001.00000000000;1999.00000000000;1984.00000000000;2022.00000000000;1978.00000000000;1995.00000000000;1987.00000000000;1991.00000000000;1978.00000000000;1974.00000000000;1993.00000000000;1974.00000000000;1964.00000000000;1965.00000000000;1974.00000000000;1975.00000000000;1974.00000000000;1975.00000000000;1975.00000000000;1985.00000000000;1983.00000000000;1970.00000000000;1988.00000000000;1975.00000000000;1983.00000000000;1990.00000000000;1986.00000000000;1991.00000000000;1985.00000000000;2031.00000000000;1983.00000000000;1985.00000000000;1985.00000000000;2012.00000000000;2019.00000000000;2014.00000000000;1992.00000000000;2009.00000000000;1995.00000000000;2012.00000000000;2006.00000000000
Gyro Z : 1942.00000000000;1945.00000000000;1909.00000000000;1914.00000000000;1888.00000000000;1880.00000000000;1853.00000000000;1875.00000000000;1882.00000000000;1878.00000000000;1885.00000000000;1887.00000000000;1862.00000000000;1865.00000000000;1875.00000000000;1840.00000000000;1853.00000000000;1860.00000000000;1847.00000000000;1853.00000000000;1855.00000000000;1863.00000000000;1853.00000000000;1843.00000000000;1850.00000000000;1845.00000000000;1880.00000000000;1862.00000000000;1854.00000000000;1863.00000000000;1867.00000000000;1855.00000000000;1850.00000000000;1858.00000000000;1899.00000000000;1859.00000000000;1871.00000000000;1877.00000000000;1882.00000000000;1889.00000000000;1878.00000000000;1862.00000000000;1885.00000000000;1871.00000000000;1882.00000000000;1882.00000000000;1853.00000000000;1855.00000000000;1855.00000000000;1880.00000000000;1870.00000000000;1871.00000000000;1893.00000000000;1848.00000000000;1886.00000000000;1858.00000000000;1861.00000000000;1875.00000000000;1868.00000000000;1869.00000000000;1860.00000000000;1845.00000000000;1866.00000000000;1869.00000000000;1875.00000000000;1855.00000000000;1876.00000000000;1873.00000000000;1869.00000000000;1880.00000000000;1880.00000000000;1855.00000000000;1880.00000000000;1885.00000000000;1878.00000000000;1863.00000000000;1883.00000000000;1878.00000000000;1862.00000000000;1857.00000000000;1882.00000000000;1857.00000000000;1872.00000000000;1867.00000000000;1869.00000000000;1868.00000000000;1860.00000000000;1872.00000000000;1862.00000000000;1845.00000000000;1862.00000000000;1872.00000000000;1871.00000000000;1859.00000000000;1877.00000000000;1870.00000000000;1905.00000000000;1851.00000000000;1859.00000000000;1861.00000000000;1870.00000000000;1876.00000000000;1871.00000000000;1870.00000000000;1845.00000000000;1860.00000000000;1888.00000000000;1874.00000000000;1873.00000000000;1853.00000000000;1868.00000000000;1861.00000000000;1862.00000000000;1845.00000000000;1876.00000000000;1864.00000000000;1846.00000000000;1838.00000000000;1848.00000000000;1844.00000000000;1844.00000000000;1864.00000000000;1851.00000000000;1847.00000000000;1845.00000000000;1847.00000000000;1850.00000000000;1833.00000000000;1842.00000000000;1861.00000000000;1878.00000000000;1859.00000000000;1849.00000000000;1859.00000000000;1858.00000000000;1845.00000000000;1850.00000000000;1869.00000000000;1862.00000000000;1850.00000000000;1879.00000000000;1832.00000000000;1870.00000000000;1840.00000000000;1844.00000000000;1838.00000000000;1823.00000000000;1849.00000000000;1833.00000000000;1856.00000000000
