COMMAND 3 SAMPLE 1
Accel X : 2790.00000000000;2800.00000000000;2794.00000000000;2784.00000000000;2801.00000000000;2797.00000000000;2817.00000000000;2820.00000000000;2819.00000000000;2810.00000000000;2808.00000000000;2795.00000000000;2815.00000000000;2803.00000000000;2819.00000000000;2809.00000000000;2827.00000000000;2818.00000000000;2813.00000000000;2817.00000000000;2815.00000000000;2822.00000000000;2807.00000000000;2820.00000000000;2817.00000000000;2808.00000000000;2816.00000000000;2831.00000000000;2802.00000000000;2810.00000000000;2809.00000000000;2822.00000000000;2810.00000000000;2844.00000000000;2817.00000000000;2832.00000000000;2826.00000000000;2823.00000000000;2812.00000000000;2821.00000000000;2824.00000000000;2770.00000000000;2839.00000000000;2959.00000000000;2927.00000000000;3143.00000000000;3133.00000000000;3182.00000000000;3247.00000000000;3271.00000000000;3294.00000000000;3359.00000000000;3373.00000000000;3328.00000000000;3228.00000000000;3112.00000000000;3263.00000000000;3125.00000000000;2903.00000000000;2786.00000000000;2625.00000000000;2707.00000000000;2577.00000000000;2539.00000000000;2469.00000000000;2363.00000000000;2325.00000000000;2257.00000000000;2135.00000000000;2133.00000000000;2069.00000000000;2023.00000000000;1922.00000000000;1879.00000000000;1713.00000000000;1716.00000000000;1678.00000000000;1642.00000000000;1581.00000000000;1577.00000000000;1556.00000000000;1520.00000000000;1662.00000000000;1605.00000000000;1696.00000000000;1767.00000000000;1800.00000000000;1595.00000000000;1825.00000000000;1908.00000000000;1996.00000000000;2016.00000000000;1993.00000000000;2093.00000000000;2136.00000000000;2141.00000000000;2229.00000000000;2355.00000000000;2750.00000000000;2911.00000000000;3197.00000000000;3311.00000000000;4002.00000000000;4076.00000000000;4075.00000000000;3871.00000000000;4069.00000000000;3958.00000000000;3806.00000000000;3662.00000000000;3198.00000000000;3123.00000000000;3035.00000000000;3072.00000000000;3126.00000000000;3014.00000000000;2936.00000000000;2869.00000000000;2830.00000000000;2817.00000000000;2843.00000000000;2833.00000000000;2848.00000000000;2850.00000000000;2813.00000000000;2806.00000000000;2793.00000000000;2815.00000000000;2789.00000000000;2802.00000000000;2828.00000000000;2832.00000000000;2822.00000000000;2819.00000000000;2863.00000000000;2883.00000000000;2877.00000000000;2866.00000000000;2852.00000000000;2867.00000000000;2856.00000000000;2866.00000000000;2853.00000000000;2843.00000000000;2866.00000000000;2865.00000000000;2849.00000000000;2863.00000000000;2868.00000000000;2868.00000000000
Accel Y : 2147.00000000000;2142.00000000000;2150.00000000000;2169.00000000000;2158.00000000000;2162.00000000000;2163.00000000000;2158.00000000000;2163.00000000000;2168.00000000000;2161.00000000000;2160.00000000000;2136.00000000000;2161.00000000000;2141.00000000000;2155.00000000000;2140.00000000000;2153.00000000000;2148.00000000000;2149.00000000000;2167.00000000000;2147.00000000000;2158.00000000000;2159.00000000000;2169.00000000000;2161.00000000000;2152.00000000000;2142.00000000000;2166.00000000000;2163.00000000000;2165.00000000000;2155.00000000000;2151.00000000000;2147.00000000000;2146.00000000000;2169.00000000000;2134.00000000000;2137.00000000000;2147.00000000000;2137.00000000000;2111.00000000000;2087.00000000000;2095.00000000000;2070.00000000000;2033.00000000000;1995.00000000000;1951.00000000000;1894.00000000000;1865.00000000000;1766.00000000000;1651.00000000000;1567.00000000000;1508.00000000000;1474.00000000000;1386.00000000000;1345.00000000000;1356.00000000000;1415.00000000000;1462.00000000000;1454.00000000000;1499.00000000000;1591.00000000000;1665.00000000000;1794.00000000000;1858.00000000000;1826.00000000000;1785.00000000000;1824.00000000000;1903.00000000000;1914.00000000000;1984.00000000000;2002.00000000000;2009.00000000000;2104.00000000000;2052.00000000000;2023.00000000000;1999.00000000000;1986.00000000000;1926.00000000000;1912.00000000000;1835.00000000000;1806.00000000000;1737.00000000000;1706.00000000000;1669.00000000000;1683.00000000000;1705.00000000000;1817.00000000000;1807.00000000000;1790.00000000000;1797.00000000000;1824.00000000000;1762.00000000000;1711.00000000000;1817.00000000000;1883.00000000000;1809.00000000000;1768.00000000000;1938.00000000000;2050.00000000000;1984.00000000000;1599.00000000000;1663.00000000000;1831.00000000000;2132.00000000000;2033.00000000000;1939.00000000000;1930.00000000000;1945.00000000000;1993.00000000000;1878.00000000000;1885.00000000000;1909.00000000000;1986.00000000000;2034.00000000000;2022.00000000000;2016.00000000000;2062.00000000000;2076.00000000000;2101.00000000000;2108.00000000000;2098.00000000000;2128.00000000000;2120.00000000000;2138.00000000000;2083.00000000000;2088.00000000000;2080.00000000000;2073.00000000000;2090.00000000000;2079.00000000000;2067.00000000000;2081.00000000000;2101.00000000000;2083.00000000000;2113.00000000000;2094.00000000000;2102.00000000000;2079.00000000000;2088.00000000000;2098.00000000000;2101.00000000000;2104.00000000000;2099.00000000000;2080.00000000000;2098.00000000000;2087.00000000000;2101.00000000000;2086.00000000000;2083.00000000000
Accel Z : 2069.00000000000;2066.00000000000;2072.00000000000;2057.00000000000;2055.00000000000;2072.00000000000;2060.00000000000;2018.00000000000;2053.00000000000;2029.00000000000;2057.00000000000;2062.00000000000;2033.00000000000;2053.00000000000;2031.00000000000;2020.00000000000;2042.00000000000;2049.00000000000;2037.00000000000;2031.00000000000;2024.00000000000;2002.00000000000;2015.00000000000;2019.00000000000;2016.00000000000;2018.00000000000;2050.00000000000;2025.00000000000;2017.00000000000;2025.00000000000;1999.00000000000;2002.00000000000;2013.00000000000;2030.00000000000;1986.00000000000;2019.00000000000;1993.00000000000;2010.00000000000;1977.00000000000;1952.00000000000;1947.00000000000;1900.00000000000;1834.00000000000;1800.00000000000;1803.00000000000;1721.00000000000;1589.00000000000;1456.00000000000;1363.00000000000;1311.00000000000;1241.00000000000;1053.00000000000;906.000000000000;734.000000000000;640.000000000000;413.000000000000;291.000000000000;308.000000000000;177.000000000000;83.0000000000000;139.000000000000;252.000000000000;413.000000000000;610.000000000000;746.000000000000;951.000000000000;1143.00000000000;1257.00000000000;1309.00000000000;1357.00000000000;1449.00000000000;1613.00000000000;1708.00000000000;1918.00000000000;2088.00000000000;2278.00000000000;2422.00000000000;2489.00000000000;2554.00000000000;2627.00000000000;2562.00000000000;2454.00000000000;2444.00000000000;2329.00000000000;2267.00000000000;2112.00000000000;2078.00000000000;1999.00000000000;1945.00000000000;1834.00000000000;1695.00000000000;1670.00000000000;1574.00000000000;1596.00000000000;1526.00000000000;1552.00000000000;1499.00000000000;1623.00000000000;1571.00000000000;1615.00000000000;1436.00000000000;1652.00000000000;1909.00000000000;2293.00000000000;2490.00000000000;2463.00000000000;2370.00000000000;2465.00000000000;2449.00000000000;2410.00000000000;2306.00000000000;2240.00000000000;2184.00000000000;2154.00000000000;2110.00000000000;2059.00000000000;2013.00000000000;2005.00000000000;1943.00000000000;1910.00000000000;1899.00000000000;1864.00000000000;1876.00000000000;1888.00000000000;1883.00000000000;1868.00000000000;1854.00000000000;1859.00000000000;1891.00000000000;1903.00000000000;1901.00000000000;1905.00000000000;1906.00000000000;1926.00000000000;1901.00000000000;1912.00000000000;1923.00000000000;1903.00000000000;1909.00000000000;1901.00000000000;1916.00000000000;1900.00000000000;1908.00000000000;1924.00000000000;1931.00000000000;1917.00000000000;1932.00000000000;1905.00000000000;1907.00000000000;1915.00000000000
Gyro X : 2790.00000000000;2800.00000000000;2794.00000000000;2784.00000000000;2801.00000000000;2797.00000000000;2817.00000000000;2820.00000000000;2819.00000000000;2810.00000000000;2808.00000000000;2795.00000000000;2815.00000000000;2803.00000000000;2819.00000000000;2809.00000000000;2827.00000000000;2818.00000000000;2813.00000000000;2817.00000000000;2815.00000000000;2822.00000000000;2807.00000000000;2820.00000000000;2817.00000000000;2808.00000000000;2816.00000000000;2831.00000000000;2802.00000000000;2810.00000000000;2809.00000000000;2822.00000000000;2810.00000000000;2844.00000000000;2817.00000000000;2832.00000000000;2826.00000000000;2823.00000000000;2812.00000000000;2821.00000000000;2824.00000000000;2770.00000000000;2839.00000000000;2959.00000000000;2927.00000000000;3143.00000000000;3133.00000000000;3182.00000000000;3247.00000000000;3271.00000000000;3294.00000000000;3359.00000000000;3373.00000000000;3328.00000000000;3228.00000000000;3112.00000000000;3263.00000000000;3125.00000000000;2903.00000000000;2786.00000000000;2625.00000000000;2707.00000000000;2577.00000000000;2539.00000000000;2469.00000000000;2363.00000000000;2325.00000000000;2257.00000000000;2135.00000000000;2133.00000000000;2069.00000000000;2023.00000000000;1922.00000000000;1879.00000000000;1713.00000000000;1716.00000000000;1678.00000000000;1642.00000000000;1581.00000000000;1577.00000000000;1556.00000000000;1520.00000000000;1662.00000000000;1605.00000000000;1696.00000000000;1767.00000000000;1800.00000000000;1595.00000000000;1825.00000000000;1908.00000000000;1996.00000000000;2016.00000000000;1993.00000000000;2093.00000000000;2136.00000000000;2141.00000000000;2229.00000000000;2355.00000000000;2750.00000000000;2911.00000000000;3197.00000000000;3311.00000000000;4002.00000000000;4076.00000000000;4075.00000000000;3871.00000000000;4069.00000000000;3958.00000000000;3806.00000000000;3662.00000000000;3198.00000000000;3123.00000000000;3035.00000000000;3072.00000000000;3126.00000000000;3014.00000000000;2936.00000000000;2869.00000000000;2830.00000000000;2817.00000000000;2843.00000000000;2833.00000000000;2848.00000000000;2850.00000000000;2813.00000000000;2806.00000000000;2793.00000000000;2815.00000000000;2789.00000000000;2802.00000000000;2828.00000000000;2832.00000000000;2822.00000000000;2819.00000000000;2863.00000000000;2883.00000000000;2877.00000000000;2866.00000000000;2852.00000000000;2867.00000000000;2856.00000000000;2866.00000000000;2853.00000000000;2843.00000000000;2866.00000000000;2865.00000000000;2849.00000000000;2863.00000000000;2868.00000000000;2868.00000000000
Gyro Y : 2147.00000000000;2142.00000000000;2150.00000000000;2169.00000000000;2158.00000000000;2162.00000000000;2163.00000000000;2158.00000000000;2163.00000000000;2168.00000000000;2161.00000000000;2160.00000000000;2136.00000000000;2161.00000000000;2141.00000000000;2155.00000000000;2140.00000000000;2153.00000000000;2148.00000000000;2149.00000000000;2167.00000000000;2147.00000000000;2158.00000000000;2159.00000000000;2169.00000000000;2161.00000000000;2152.00000000000;2142.00000000000;2166.00000000000;2163.00000000000;2165.00000000000;2155.00000000000;2151.00000000000;2147.00000000000;2146.00000000000;2169.00000000000;2134.00000000000;2137.00000000000;2147.00000000000;2137.00000000000;2111.00000000000;2087.00000000000;2095.00000000000;2070.00000000000;2033.00000000000;1995.00000000000;1951.00000000000;1894.00000000000;1865.00000000000;1766.00000000000;1651.00000000000;1567.00000000000;1508.00000000000;1474.00000000000;1386.00000000000;1345.00000000000;1356.00000000000;1415.00000000000;1462.00000000000;1454.00000000000;1499.00000000000;1591.00000000000;1665.00000000000;1794.00000000000;1858.00000000000;1826.00000000000;1785.00000000000;1824.00000000000;1903.00000000000;1914.00000000000;1984.00000000000;2002.00000000000;2009.00000000000;2104.00000000000;2052.00000000000;2023.00000000000;1999.00000000000;1986.00000000000;1926.00000000000;1912.00000000000;1835.00000000000;1806.00000000000;1737.00000000000;1706.00000000000;1669.00000000000;1683.00000000000;1705.00000000000;1817.00000000000;1807.00000000000;1790.00000000000;1797.00000000000;1824.00000000000;1762.00000000000;1711.00000000000;1817.00000000000;1883.00000000000;1809.00000000000;1768.00000000000;1938.00000000000;2050.00000000000;1984.00000000000;1599.00000000000;1663.00000000000;1831.00000000000;2132.00000000000;2033.00000000000;1939.00000000000;1930.00000000000;1945.00000000000;1993.00000000000;1878.00000000000;1885.00000000000;1909.00000000000;1986.00000000000;2034.00000000000;2022.00000000000;2016.00000000000;2062.00000000000;2076.00000000000;2101.00000000000;2108.00000000000;2098.00000000000;2128.00000000000;2120.00000000000;2138.00000000000;2083.00000000000;2088.00000000000;2080.00000000000;2073.00000000000;2090.00000000000;2079.00000000000;2067.00000000000;2081.00000000000;2101.00000000000;2083.00000000000;2113.00000000000;2094.00000000000;2102.00000000000;2079.00000000000;2088.00000000000;2098.00000000000;2101.00000000000;2104.00000000000;2099.00000000000;2080.00000000000;2098.00000000000;2087.00000000000;2101.00000000000;2086.00000000000;2083.00000000000
Gyro Z : 2069.00000000000;2066.00000000000;2072.00000000000;2057.00000000000;2055.00000000000;2072.00000000000;2060.00000000000;2018.00000000000;2053.00000000000;2029.00000000000;2057.00000000000;2062.00000000000;2033.00000000000;2053.00000000000;2031.00000000000;2020.00000000000;2042.00000000000;2049.00000000000;2037.00000000000;2031.00000000000;2024.00000000000;2002.00000000000;2015.00000000000;2019.00000000000;2016.00000000000;2018.00000000000;2050.00000000000;2025.00000000000;2017.00000000000;2025.00000000000;1999.00000000000;2002.00000000000;2013.00000000000;2030.00000000000;1986.00000000000;2019.00000000000;1993.00000000000;2010.00000000000;1977.00000000000;1952.00000000000;1947.00000000000;1900.00000000000;1834.00000000000;1800.00000000000;1803.00000000000;1721.00000000000;1589.00000000000;1456.00000000000;1363.00000000000;1311.00000000000;1241.00000000000;1053.00000000000;906.000000000000;734.000000000000;640.000000000000;413.000000000000;291.000000000000;308.000000000000;177.000000000000;83.0000000000000;139.000000000000;252.000000000000;413.000000000000;610.000000000000;746.000000000000;951.000000000000;1143.00000000000;1257.00000000000;1309.00000000000;1357.00000000000;1449.00000000000;1613.00000000000;1708.00000000000;1918.00000000000;2088.00000000000;2278.00000000000;2422.00000000000;2489.00000000000;2554.00000000000;2627.00000000000;2562.00000000000;2454.00000000000;2444.00000000000;2329.00000000000;2267.00000000000;2112.00000000000;2078.00000000000;1999.00000000000;1945.00000000000;1834.00000000000;1695.00000000000;1670.00000000000;1574.00000000000;1596.00000000000;1526.00000000000;1552.00000000000;1499.00000000000;1623.00000000000;1571.00000000000;1615.00000000000;1436.00000000000;1652.00000000000;1909.00000000000;2293.00000000000;2490.00000000000;2463.00000000000;2370.00000000000;2465.00000000000;2449.00000000000;2410.00000000000;2306.00000000000;2240.00000000000;2184.00000000000;2154.00000000000;2110.00000000000;2059.00000000000;2013.00000000000;2005.00000000000;1943.00000000000;1910.00000000000;1899.00000000000;1864.00000000000;1876.00000000000;1888.00000000000;1883.00000000000;1868.00000000000;1854.00000000000;1859.00000000000;1891.00000000000;1903.00000000000;1901.00000000000;1905.00000000000;1906.00000000000;1926.00000000000;1901.00000000000;1912.00000000000;1923.00000000000;1903.00000000000;1909.00000000000;1901.00000000000;1916.00000000000;1900.00000000000;1908.00000000000;1924.00000000000;1931.00000000000;1917.00000000000;1932.00000000000;1905.00000000000;1907.00000000000;1915.00000000000
