COMMAND 4 SAMPLE 1
Accel X : 2847.00000000000;2859.00000000000;2845.00000000000;2839.00000000000;2844.00000000000;2842.00000000000;2847.00000000000;2855.00000000000;2856.00000000000;2831.00000000000;2823.00000000000;2848.00000000000;2849.00000000000;2866.00000000000;2868.00000000000;2821.00000000000;2838.00000000000;2845.00000000000;2852.00000000000;2825.00000000000;2854.00000000000;2848.00000000000;2853.00000000000;2865.00000000000;2848.00000000000;2860.00000000000;2869.00000000000;2879.00000000000;2876.00000000000;2885.00000000000;2898.00000000000;2876.00000000000;2847.00000000000;2819.00000000000;2826.00000000000;2805.00000000000;2798.00000000000;2747.00000000000;2755.00000000000;2815.00000000000;2697.00000000000;2550.00000000000;2501.00000000000;2408.00000000000;2287.00000000000;1758.00000000000;2023.00000000000;1984.00000000000;1903.00000000000;2018.00000000000;2042.00000000000;2160.00000000000;2123.00000000000;2124.00000000000;2148.00000000000;2135.00000000000;1963.00000000000;1831.00000000000;1611.00000000000;1691.00000000000;1711.00000000000;1765.00000000000;1863.00000000000;1824.00000000000;1832.00000000000;1700.00000000000;1747.00000000000;1745.00000000000;1711.00000000000;1669.00000000000;1705.00000000000;1698.00000000000;1679.00000000000;1689.00000000000;1761.00000000000;1796.00000000000;1811.00000000000;1860.00000000000;1944.00000000000;2094.00000000000;1976.00000000000;2024.00000000000;1935.00000000000;1935.00000000000;1921.00000000000;1915.00000000000;2077.00000000000;2052.00000000000;2293.00000000000;2560.00000000000;2508.00000000000;2567.00000000000;2731.00000000000;2757.00000000000;2737.00000000000;2609.00000000000;2605.00000000000;2391.00000000000;2369.00000000000;2339.00000000000;2342.00000000000;2388.00000000000;2430.00000000000;2556.00000000000;2691.00000000000;2735.00000000000;2775.00000000000;2808.00000000000;2829.00000000000;2815.00000000000;2863.00000000000;2887.00000000000;2892.00000000000;2907.00000000000;2921.00000000000;2888.00000000000;2878.00000000000;2878.00000000000;2867.00000000000;2852.00000000000;2838.00000000000;2825.00000000000;2801.00000000000;2818.00000000000;2825.00000000000;2825.00000000000;2859.00000000000;2861.00000000000;2825.00000000000;2835.00000000000;2826.00000000000;2845.00000000000;2856.00000000000;2859.00000000000;2846.00000000000;2853.00000000000;2855.00000000000;2866.00000000000;2832.00000000000;2871.00000000000;2823.00000000000;2864.00000000000;2831.00000000000;2838.00000000000;2848.00000000000;2847.00000000000;2871.00000000000;2874.00000000000;2877.00000000000;2854.00000000000
Accel Y : 1982.00000000000;1983.00000000000;1994.00000000000;1997.00000000000;1974.00000000000;1977.00000000000;1973.00000000000;1974.00000000000;1965.00000000000;1950.00000000000;1973.00000000000;1992.00000000000;1975.00000000000;1989.00000000000;1970.00000000000;1971.00000000000;1982.00000000000;1975.00000000000;1970.00000000000;1986.00000000000;1986.00000000000;1991.00000000000;2005.00000000000;1992.00000000000;1977.00000000000;1972.00000000000;1978.00000000000;1974.00000000000;1976.00000000000;1973.00000000000;1949.00000000000;1975.00000000000;1959.00000000000;1946.00000000000;1954.00000000000;1964.00000000000;1974.00000000000;1996.00000000000;1967.00000000000;1960.00000000000;1953.00000000000;1956.00000000000;1955.00000000000;1997.00000000000;1992.00000000000;1910.00000000000;2166.00000000000;2275.00000000000;2398.00000000000;2651.00000000000;2940.00000000000;3337.00000000000;3718.00000000000;3925.00000000000;4030.00000000000;3891.00000000000;3621.00000000000;3501.00000000000;3460.00000000000;3428.00000000000;3419.00000000000;3379.00000000000;3284.00000000000;3243.00000000000;3215.00000000000;3140.00000000000;3115.00000000000;3074.00000000000;3095.00000000000;3086.00000000000;3078.00000000000;3131.00000000000;3128.00000000000;3156.00000000000;3191.00000000000;3202.00000000000;3211.00000000000;3269.00000000000;3319.00000000000;3324.00000000000;3429.00000000000;3409.00000000000;3475.00000000000;3468.00000000000;3442.00000000000;3339.00000000000;3264.00000000000;3237.00000000000;3088.00000000000;2910.00000000000;2847.00000000000;2708.00000000000;2558.00000000000;2472.00000000000;2296.00000000000;2243.00000000000;2116.00000000000;2019.00000000000;1955.00000000000;1897.00000000000;1865.00000000000;1823.00000000000;1849.00000000000;1833.00000000000;1815.00000000000;1825.00000000000;1803.00000000000;1810.00000000000;1795.00000000000;1830.00000000000;1827.00000000000;1839.00000000000;1826.00000000000;1866.00000000000;1830.00000000000;1862.00000000000;1848.00000000000;1863.00000000000;1844.00000000000;1852.00000000000;1850.00000000000;1877.00000000000;1856.00000000000;1865.00000000000;1876.00000000000;1883.00000000000;1858.00000000000;1863.00000000000;1870.00000000000;1839.00000000000;1851.00000000000;1863.00000000000;1865.00000000000;1870.00000000000;1850.00000000000;1873.00000000000;1879.00000000000;1855.00000000000;1857.00000000000;1856.00000000000;1876.00000000000;1886.00000000000;1875.00000000000;1872.00000000000;1884.00000000000;1881.00000000000;1875.00000000000;1880.00000000000;1862.00000000000;1883.00000000000
Accel Z : 1934.00000000000;1929.00000000000;1908.00000000000;1912.00000000000;1897.00000000000;1886.00000000000;1889.00000000000;1903.00000000000;1903.00000000000;1885.00000000000;1903.00000000000;1902.00000000000;1900.00000000000;1895.00000000000;1933.00000000000;1885.00000000000;1892.00000000000;1900.00000000000;1906.00000000000;1881.00000000000;1882.00000000000;1918.00000000000;1918.00000000000;1892.00000000000;1902.00000000000;1917.00000000000;1906.00000000000;1890.00000000000;1903.00000000000;1903.00000000000;1876.00000000000;1899.00000000000;1893.00000000000;1903.00000000000;1885.00000000000;1901.00000000000;1902.00000000000;1893.00000000000;1926.00000000000;1999.00000000000;1962.00000000000;1937.00000000000;1943.00000000000;1928.00000000000;1943.00000000000;1897.00000000000;1913.00000000000;1902.00000000000;1861.00000000000;1878.00000000000;1835.00000000000;1828.00000000000;1756.00000000000;1704.00000000000;1810.00000000000;1727.00000000000;1632.00000000000;1570.00000000000;1607.00000000000;1745.00000000000;1858.00000000000;1967.00000000000;2026.00000000000;2111.00000000000;2169.00000000000;2200.00000000000;2267.00000000000;2296.00000000000;2280.00000000000;2250.00000000000;2186.00000000000;2133.00000000000;2059.00000000000;1976.00000000000;1942.00000000000;1879.00000000000;1879.00000000000;1888.00000000000;1902.00000000000;1872.00000000000;1807.00000000000;1856.00000000000;1805.00000000000;1775.00000000000;1766.00000000000;1810.00000000000;1823.00000000000;1880.00000000000;1852.00000000000;1910.00000000000;1898.00000000000;1825.00000000000;1719.00000000000;1748.00000000000;1768.00000000000;1844.00000000000;1885.00000000000;1807.00000000000;1815.00000000000;1796.00000000000;1850.00000000000;1828.00000000000;1830.00000000000;1842.00000000000;1853.00000000000;1864.00000000000;1862.00000000000;1864.00000000000;1843.00000000000;1853.00000000000;1879.00000000000;1859.00000000000;1858.00000000000;1856.00000000000;1860.00000000000;1871.00000000000;1834.00000000000;1848.00000000000;1858.00000000000;1847.00000000000;1841.00000000000;1843.00000000000;1841.00000000000;1862.00000000000;1824.00000000000;1827.00000000000;1827.00000000000;1835.00000000000;1802.00000000000;1846.00000000000;1826.00000000000;1833.00000000000;1857.00000000000;1825.00000000000;1840.00000000000;1818.00000000000;1831.00000000000;1839.00000000000;1834.00000000000;1824.00000000000;1834.00000000000;1843.00000000000;1826.00000000000;1834.00000000000;1821.00000000000;1836.00000000000;1824.00000000000;1837.00000000000;1845.00000000000;1834.00000000000
Gyro X : 2847.00000000000;2859.00000000000;2845.00000000000;2839.00000000000;2844.00000000000;2842.00000000000;2847.00000000000;2855.00000000000;2856.00000000000;2831.00000000000;2823.00000000000;2848.00000000000;2849.00000000000;2866.00000000000;2868.00000000000;2821.00000000000;2838.00000000000;2845.00000000000;2852.00000000000;2825.00000000000;2854.00000000000;2848.00000000000;2853.00000000000;2865.00000000000;2848.00000000000;2860.00000000000;2869.00000000000;2879.00000000000;2876.00000000000;2885.00000000000;2898.00000000000;2876.00000000000;2847.00000000000;2819.00000000000;2826.00000000000;2805.00000000000;2798.00000000000;2747.00000000000;2755.00000000000;2815.00000000000;2697.00000000000;2550.00000000000;2501.00000000000;2408.00000000000;2287.00000000000;1758.00000000000;2023.00000000000;1984.00000000000;1903.00000000000;2018.00000000000;2042.00000000000;2160.00000000000;2123.00000000000;2124.00000000000;2148.00000000000;2135.00000000000;1963.00000000000;1831.00000000000;1611.00000000000;1691.00000000000;1711.00000000000;1765.00000000000;1863.00000000000;1824.00000000000;1832.00000000000;1700.00000000000;1747.00000000000;1745.00000000000;1711.00000000000;1669.00000000000;1705.00000000000;1698.00000000000;1679.00000000000;1689.00000000000;1761.00000000000;1796.00000000000;1811.00000000000;1860.00000000000;1944.00000000000;2094.00000000000;1976.00000000000;2024.00000000000;1935.00000000000;1935.00000000000;1921.00000000000;1915.00000000000;2077.00000000000;2052.00000000000;2293.00000000000;2560.00000000000;2508.00000000000;2567.00000000000;2731.00000000000;2757.00000000000;2737.00000000000;2609.00000000000;2605.00000000000;2391.00000000000;2369.00000000000;2339.00000000000;2342.00000000000;2388.00000000000;2430.00000000000;2556.00000000000;2691.00000000000;2735.00000000000;2775.00000000000;2808.00000000000;2829.00000000000;2815.00000000000;2863.00000000000;2887.00000000000;2892.00000000000;2907.00000000000;2921.00000000000;2888.00000000000;2878.00000000000;2878.00000000000;2867.00000000000;2852.00000000000;2838.00000000000;2825.00000000000;2801.00000000000;2818.00000000000;2825.00000000000;2825.00000000000;2859.00000000000;2861.00000000000;2825.00000000000;2835.00000000000;2826.00000000000;2845.00000000000;2856.00000000000;2859.00000000000;2846.00000000000;2853.00000000000;2855.00000000000;2866.00000000000;2832.00000000000;2871.00000000000;2823.00000000000;2864.00000000000;2831.00000000000;2838.00000000000;2848.00000000000;2847.00000000000;2871.00000000000;2874.00000000000;2877.00000000000;2854.00000000000
Gyro Y : 1982.00000000000;1983.00000000000;1994.00000000000;1997.00000000000;1974.00000000000;1977.00000000000;1973.00000000000;1974.00000000000;1965.00000000000;1950.00000000000;1973.00000000000;1992.00000000000;1975.00000000000;1989.00000000000;1970.00000000000;1971.00000000000;1982.00000000000;1975.00000000000;1970.00000000000;1986.00000000000;1986.00000000000;1991.00000000000;2005.00000000000;1992.00000000000;1977.00000000000;1972.00000000000;1978.00000000000;1974.00000000000;1976.00000000000;1973.00000000000;1949.00000000000;1975.00000000000;1959.00000000000;1946.00000000000;1954.00000000000;1964.00000000000;1974.00000000000;1996.00000000000;1967.00000000000;1960.00000000000;1953.00000000000;1956.00000000000;1955.00000000000;1997.00000000000;1992.00000000000;1910.00000000000;2166.00000000000;2275.00000000000;2398.00000000000;2651.00000000000;2940.00000000000;3337.00000000000;3718.00000000000;3925.00000000000;4030.00000000000;3891.00000000000;3621.00000000000;3501.00000000000;3460.00000000000;3428.00000000000;3419.00000000000;3379.00000000000;3284.00000000000;3243.00000000000;3215.00000000000;3140.00000000000;3115.00000000000;3074.00000000000;3095.00000000000;3086.00000000000;3078.00000000000;3131.00000000000;3128.00000000000;3156.00000000000;3191.00000000000;3202.00000000000;3211.00000000000;3269.00000000000;3319.00000000000;3324.00000000000;3429.00000000000;3409.00000000000;3475.00000000000;3468.00000000000;3442.00000000000;3339.00000000000;3264.00000000000;3237.00000000000;3088.00000000000;2910.00000000000;2847.00000000000;2708.00000000000;2558.00000000000;2472.00000000000;2296.00000000000;2243.00000000000;2116.00000000000;2019.00000000000;1955.00000000000;1897.00000000000;1865.00000000000;1823.00000000000;1849.00000000000;1833.00000000000;1815.00000000000;1825.00000000000;1803.00000000000;1810.00000000000;1795.00000000000;1830.00000000000;1827.00000000000;1839.00000000000;1826.00000000000;1866.00000000000;1830.00000000000;1862.00000000000;1848.00000000000;1863.00000000000;1844.00000000000;1852.00000000000;1850.00000000000;1877.00000000000;1856.00000000000;1865.00000000000;1876.00000000000;1883.00000000000;1858.00000000000;1863.00000000000;1870.00000000000;1839.00000000000;1851.00000000000;1863.00000000000;1865.00000000000;1870.00000000000;1850.00000000000;1873.00000000000;1879.00000000000;1855.00000000000;1857.00000000000;1856.00000000000;1876.00000000000;1886.00000000000;1875.00000000000;1872.00000000000;1884.00000000000;1881.00000000000;1875.00000000000;1880.00000000000;1862.00000000000;1883.00000000000
Gyro Z : 1934.00000000000;1929.00000000000;1908.00000000000;1912.00000000000;1897.00000000000;1886.00000000000;1889.00000000000;1903.00000000000;1903.00000000000;1885.00000000000;1903.00000000000;1902.00000000000;1900.00000000000;1895.00000000000;1933.00000000000;1885.00000000000;1892.00000000000;1900.00000000000;1906.00000000000;1881.00000000000;1882.00000000000;1918.00000000000;1918.00000000000;1892.00000000000;1902.00000000000;1917.00000000000;1906.00000000000;1890.00000000000;1903.00000000000;1903.00000000000;1876.00000000000;1899.00000000000;1893.00000000000;1903.00000000000;1885.00000000000;1901.00000000000;1902.00000000000;1893.00000000000;1926.00000000000;1999.00000000000;1962.00000000000;1937.00000000000;1943.00000000000;1928.00000000000;1943.00000000000;1897.00000000000;1913.00000000000;1902.00000000000;1861.00000000000;1878.00000000000;1835.00000000000;1828.00000000000;1756.00000000000;1704.00000000000;1810.00000000000;1727.00000000000;1632.00000000000;1570.00000000000;1607.00000000000;1745.00000000000;1858.00000000000;1967.00000000000;2026.00000000000;2111.00000000000;2169.00000000000;2200.00000000000;2267.00000000000;2296.00000000000;2280.00000000000;2250.00000000000;2186.00000000000;2133.00000000000;2059.00000000000;1976.00000000000;1942.00000000000;1879.00000000000;1879.00000000000;1888.00000000000;1902.00000000000;1872.00000000000;1807.00000000000;1856.00000000000;1805.00000000000;1775.00000000000;1766.00000000000;1810.00000000000;1823.00000000000;1880.00000000000;1852.00000000000;1910.00000000000;1898.00000000000;1825.00000000000;1719.00000000000;1748.00000000000;1768.00000000000;1844.00000000000;1885.00000000000;1807.00000000000;1815.00000000000;1796.00000000000;1850.00000000000;1828.00000000000;1830.00000000000;1842.00000000000;1853.00000000000;1864.00000000000;1862.00000000000;1864.00000000000;1843.00000000000;1853.00000000000;1879.00000000000;1859.00000000000;1858.00000000000;1856.00000000000;1860.00000000000;1871.00000000000;1834.00000000000;1848.00000000000;1858.00000000000;1847.00000000000;1841.00000000000;1843.00000000000;1841.00000000000;1862.00000000000;1824.00000000000;1827.00000000000;1827.00000000000;1835.00000000000;1802.00000000000;1846.00000000000;1826.00000000000;1833.00000000000;1857.00000000000;1825.00000000000;1840.00000000000;1818.00000000000;1831.00000000000;1839.00000000000;1834.00000000000;1824.00000000000;1834.00000000000;1843.00000000000;1826.00000000000;1834.00000000000;1821.00000000000;1836.00000000000;1824.00000000000;1837.00000000000;1845.00000000000;1834.00000000000
