COMMAND 4 SAMPLE 1
Accel X : 2844.00000000000;2861.00000000000;2839.00000000000;2864.00000000000;2876.00000000000;2866.00000000000;2884.00000000000;2854.00000000000;2851.00000000000;2833.00000000000;2844.00000000000;2838.00000000000;2847.00000000000;2859.00000000000;2847.00000000000;2846.00000000000;2858.00000000000;2855.00000000000;2854.00000000000;2836.00000000000;2827.00000000000;2839.00000000000;2854.00000000000;2835.00000000000;2856.00000000000;2815.00000000000;2843.00000000000;2836.00000000000;2816.00000000000;2788.00000000000;2811.00000000000;2790.00000000000;2794.00000000000;2761.00000000000;2722.00000000000;2684.00000000000;2638.00000000000;2598.00000000000;2626.00000000000;2574.00000000000;2546.00000000000;2525.00000000000;2315.00000000000;2228.00000000000;2375.00000000000;2197.00000000000;2100.00000000000;2069.00000000000;2170.00000000000;2224.00000000000;2234.00000000000;2332.00000000000;2253.00000000000;2074.00000000000;1807.00000000000;1678.00000000000;1605.00000000000;1667.00000000000;1621.00000000000;1719.00000000000;1589.00000000000;1611.00000000000;1728.00000000000;1904.00000000000;1884.00000000000;1684.00000000000;1621.00000000000;1616.00000000000;1591.00000000000;1737.00000000000;1839.00000000000;1950.00000000000;2007.00000000000;1949.00000000000;1828.00000000000;1947.00000000000;2063.00000000000;2010.00000000000;2110.00000000000;2156.00000000000;2169.00000000000;2056.00000000000;2029.00000000000;2118.00000000000;2399.00000000000;2403.00000000000;2289.00000000000;2257.00000000000;2109.00000000000;2166.00000000000;2074.00000000000;2025.00000000000;2018.00000000000;1988.00000000000;1984.00000000000;1911.00000000000;1969.00000000000;2274.00000000000;2499.00000000000;2606.00000000000;2634.00000000000;2783.00000000000;2711.00000000000;2620.00000000000;2619.00000000000;2595.00000000000;2709.00000000000;2699.00000000000;2713.00000000000;2811.00000000000;2758.00000000000;2739.00000000000;2743.00000000000;2780.00000000000;2771.00000000000;2783.00000000000;2804.00000000000;2808.00000000000;2735.00000000000;2795.00000000000;2761.00000000000;2740.00000000000;2898.00000000000;2754.00000000000;2803.00000000000;2815.00000000000;2815.00000000000;2791.00000000000;2812.00000000000;2804.00000000000;2803.00000000000;2805.00000000000;2851.00000000000;2826.00000000000;2827.00000000000;2784.00000000000;2775.00000000000;2825.00000000000;2834.00000000000;2833.00000000000;2786.00000000000;2801.00000000000;2828.00000000000;2814.00000000000;2816.00000000000;2795.00000000000;2787.00000000000;2787.00000000000;2823.00000000000;2787.00000000000
Accel Y : 1851.00000000000;1883.00000000000;1856.00000000000;1845.00000000000;1870.00000000000;1859.00000000000;1860.00000000000;1856.00000000000;1872.00000000000;1856.00000000000;1858.00000000000;1871.00000000000;1852.00000000000;1855.00000000000;1864.00000000000;1847.00000000000;1887.00000000000;1847.00000000000;1871.00000000000;1839.00000000000;1863.00000000000;1833.00000000000;1835.00000000000;1838.00000000000;1859.00000000000;1835.00000000000;1847.00000000000;1825.00000000000;1845.00000000000;1852.00000000000;1834.00000000000;1831.00000000000;1844.00000000000;1837.00000000000;1828.00000000000;1834.00000000000;1839.00000000000;1849.00000000000;1835.00000000000;1860.00000000000;1869.00000000000;1918.00000000000;1900.00000000000;1996.00000000000;2111.00000000000;2170.00000000000;2297.00000000000;2529.00000000000;2854.00000000000;3085.00000000000;3355.00000000000;3719.00000000000;3923.00000000000;3822.00000000000;3642.00000000000;3413.00000000000;3418.00000000000;3390.00000000000;3331.00000000000;3389.00000000000;3381.00000000000;3378.00000000000;3322.00000000000;3227.00000000000;3191.00000000000;3183.00000000000;3157.00000000000;3155.00000000000;3118.00000000000;3192.00000000000;3214.00000000000;3246.00000000000;3349.00000000000;3387.00000000000;3431.00000000000;3448.00000000000;3523.00000000000;3631.00000000000;3692.00000000000;3699.00000000000;3628.00000000000;3506.00000000000;3366.00000000000;3239.00000000000;3173.00000000000;2953.00000000000;2787.00000000000;2545.00000000000;2396.00000000000;2205.00000000000;2132.00000000000;1954.00000000000;1909.00000000000;1803.00000000000;1726.00000000000;1699.00000000000;1672.00000000000;1703.00000000000;1695.00000000000;1691.00000000000;1760.00000000000;1677.00000000000;1625.00000000000;1605.00000000000;1622.00000000000;1597.00000000000;1609.00000000000;1616.00000000000;1645.00000000000;1662.00000000000;1652.00000000000;1664.00000000000;1699.00000000000;1685.00000000000;1691.00000000000;1697.00000000000;1731.00000000000;1717.00000000000;1729.00000000000;1740.00000000000;1776.00000000000;1754.00000000000;1793.00000000000;1768.00000000000;1783.00000000000;1794.00000000000;1808.00000000000;1790.00000000000;1779.00000000000;1810.00000000000;1811.00000000000;1832.00000000000;1830.00000000000;1829.00000000000;1828.00000000000;1810.00000000000;1817.00000000000;1810.00000000000;1833.00000000000;1820.00000000000;1845.00000000000;1795.00000000000;1825.00000000000;1821.00000000000;1814.00000000000;1813.00000000000;1835.00000000000;1829.00000000000;1800.00000000000;1824.00000000000
Accel Z : 1874.00000000000;1841.00000000000;1873.00000000000;1858.00000000000;1854.00000000000;1871.00000000000;1844.00000000000;1857.00000000000;1862.00000000000;1861.00000000000;1854.00000000000;1873.00000000000;1857.00000000000;1872.00000000000;1850.00000000000;1844.00000000000;1853.00000000000;1850.00000000000;1860.00000000000;1856.00000000000;1871.00000000000;1872.00000000000;1874.00000000000;1871.00000000000;1870.00000000000;1859.00000000000;1860.00000000000;1856.00000000000;1848.00000000000;1859.00000000000;1852.00000000000;1857.00000000000;1863.00000000000;1864.00000000000;1892.00000000000;1871.00000000000;1877.00000000000;1877.00000000000;1876.00000000000;1911.00000000000;1941.00000000000;1915.00000000000;1867.00000000000;1879.00000000000;1922.00000000000;1836.00000000000;1845.00000000000;1894.00000000000;1898.00000000000;1895.00000000000;1949.00000000000;1985.00000000000;1880.00000000000;1687.00000000000;1539.00000000000;1433.00000000000;1517.00000000000;1674.00000000000;1853.00000000000;2076.00000000000;2137.00000000000;2218.00000000000;2301.00000000000;2378.00000000000;2439.00000000000;2415.00000000000;2355.00000000000;2313.00000000000;2242.00000000000;2196.00000000000;2155.00000000000;2116.00000000000;2107.00000000000;2120.00000000000;2058.00000000000;1919.00000000000;1983.00000000000;2055.00000000000;2058.00000000000;2039.00000000000;2080.00000000000;2020.00000000000;2071.00000000000;2118.00000000000;2111.00000000000;2162.00000000000;2097.00000000000;2117.00000000000;2013.00000000000;2056.00000000000;1942.00000000000;1922.00000000000;1944.00000000000;1913.00000000000;1954.00000000000;1974.00000000000;2134.00000000000;2203.00000000000;2126.00000000000;2003.00000000000;2042.00000000000;2165.00000000000;2135.00000000000;2115.00000000000;2121.00000000000;2090.00000000000;2106.00000000000;2048.00000000000;2043.00000000000;2100.00000000000;2106.00000000000;2102.00000000000;2080.00000000000;2045.00000000000;2031.00000000000;2029.00000000000;2054.00000000000;2047.00000000000;2042.00000000000;2031.00000000000;2005.00000000000;2022.00000000000;2031.00000000000;1990.00000000000;1995.00000000000;2003.00000000000;1976.00000000000;1977.00000000000;2002.00000000000;1986.00000000000;1994.00000000000;2001.00000000000;1996.00000000000;1965.00000000000;1987.00000000000;1969.00000000000;1975.00000000000;1967.00000000000;1987.00000000000;1975.00000000000;1991.00000000000;1971.00000000000;1983.00000000000;1989.00000000000;1980.00000000000;1981.00000000000;1962.00000000000;1956.00000000000;1971.00000000000;1967.00000000000
Gyro X : 2844.00000000000;2861.00000000000;2839.00000000000;2864.00000000000;2876.00000000000;2866.00000000000;2884.00000000000;2854.00000000000;2851.00000000000;2833.00000000000;2844.00000000000;2838.00000000000;2847.00000000000;2859.00000000000;2847.00000000000;2846.00000000000;2858.00000000000;2855.00000000000;2854.00000000000;2836.00000000000;2827.00000000000;2839.00000000000;2854.00000000000;2835.00000000000;2856.00000000000;2815.00000000000;2843.00000000000;2836.00000000000;2816.00000000000;2788.00000000000;2811.00000000000;2790.00000000000;2794.00000000000;2761.00000000000;2722.00000000000;2684.00000000000;2638.00000000000;2598.00000000000;2626.00000000000;2574.00000000000;2546.00000000000;2525.00000000000;2315.00000000000;2228.00000000000;2375.00000000000;2197.00000000000;2100.00000000000;2069.00000000000;2170.00000000000;2224.00000000000;2234.00000000000;2332.00000000000;2253.00000000000;2074.00000000000;1807.00000000000;1678.00000000000;1605.00000000000;1667.00000000000;1621.00000000000;1719.00000000000;1589.00000000000;1611.00000000000;1728.00000000000;1904.00000000000;1884.00000000000;1684.00000000000;1621.00000000000;1616.00000000000;1591.00000000000;1737.00000000000;1839.00000000000;1950.00000000000;2007.00000000000;1949.00000000000;1828.00000000000;1947.00000000000;2063.00000000000;2010.00000000000;2110.00000000000;2156.00000000000;2169.00000000000;2056.00000000000;2029.00000000000;2118.00000000000;2399.00000000000;2403.00000000000;2289.00000000000;2257.00000000000;2109.00000000000;2166.00000000000;2074.00000000000;2025.00000000000;2018.00000000000;1988.00000000000;1984.00000000000;1911.00000000000;1969.00000000000;2274.00000000000;2499.00000000000;2606.00000000000;2634.00000000000;2783.00000000000;2711.00000000000;2620.00000000000;2619.00000000000;2595.00000000000;2709.00000000000;2699.00000000000;2713.00000000000;2811.00000000000;2758.00000000000;2739.00000000000;2743.00000000000;2780.00000000000;2771.00000000000;2783.00000000000;2804.00000000000;2808.00000000000;2735.00000000000;2795.00000000000;2761.00000000000;2740.00000000000;2898.00000000000;2754.00000000000;2803.00000000000;2815.00000000000;2815.00000000000;2791.00000000000;2812.00000000000;2804.00000000000;2803.00000000000;2805.00000000000;2851.00000000000;2826.00000000000;2827.00000000000;2784.00000000000;2775.00000000000;2825.00000000000;2834.00000000000;2833.00000000000;2786.00000000000;2801.00000000000;2828.00000000000;2814.00000000000;2816.00000000000;2795.00000000000;2787.00000000000;2787.00000000000;2823.00000000000;2787.00000000000
Gyro Y : 1851.00000000000;1883.00000000000;1856.00000000000;1845.00000000000;1870.00000000000;1859.00000000000;1860.00000000000;1856.00000000000;1872.00000000000;1856.00000000000;1858.00000000000;1871.00000000000;1852.00000000000;1855.00000000000;1864.00000000000;1847.00000000000;1887.00000000000;1847.00000000000;1871.00000000000;1839.00000000000;1863.00000000000;1833.00000000000;1835.00000000000;1838.00000000000;1859.00000000000;1835.00000000000;1847.00000000000;1825.00000000000;1845.00000000000;1852.00000000000;1834.00000000000;1831.00000000000;1844.00000000000;1837.00000000000;1828.00000000000;1834.00000000000;1839.00000000000;1849.00000000000;1835.00000000000;1860.00000000000;1869.00000000000;1918.00000000000;1900.00000000000;1996.00000000000;2111.00000000000;2170.00000000000;2297.00000000000;2529.00000000000;2854.00000000000;3085.00000000000;3355.00000000000;3719.00000000000;3923.00000000000;3822.00000000000;3642.00000000000;3413.00000000000;3418.00000000000;3390.00000000000;3331.00000000000;3389.00000000000;3381.00000000000;3378.00000000000;3322.00000000000;3227.00000000000;3191.00000000000;3183.00000000000;3157.00000000000;3155.00000000000;3118.00000000000;3192.00000000000;3214.00000000000;3246.00000000000;3349.00000000000;3387.00000000000;3431.00000000000;3448.00000000000;3523.00000000000;3631.00000000000;3692.00000000000;3699.00000000000;3628.00000000000;3506.00000000000;3366.00000000000;3239.00000000000;3173.00000000000;2953.00000000000;2787.00000000000;2545.00000000000;2396.00000000000;2205.00000000000;2132.00000000000;1954.00000000000;1909.00000000000;1803.00000000000;1726.00000000000;1699.00000000000;1672.00000000000;1703.00000000000;1695.00000000000;1691.00000000000;1760.00000000000;1677.00000000000;1625.00000000000;1605.00000000000;1622.00000000000;1597.00000000000;1609.00000000000;1616.00000000000;1645.00000000000;1662.00000000000;1652.00000000000;1664.00000000000;1699.00000000000;1685.00000000000;1691.00000000000;1697.00000000000;1731.00000000000;1717.00000000000;1729.00000000000;1740.00000000000;1776.00000000000;1754.00000000000;1793.00000000000;1768.00000000000;1783.00000000000;1794.00000000000;1808.00000000000;1790.00000000000;1779.00000000000;1810.00000000000;1811.00000000000;1832.00000000000;1830.00000000000;1829.00000000000;1828.00000000000;1810.00000000000;1817.00000000000;1810.00000000000;1833.00000000000;1820.00000000000;1845.00000000000;1795.00000000000;1825.00000000000;1821.00000000000;1814.00000000000;1813.00000000000;1835.00000000000;1829.00000000000;1800.00000000000;1824.00000000000
Gyro Z : 1874.00000000000;1841.00000000000;1873.00000000000;1858.00000000000;1854.00000000000;1871.00000000000;1844.00000000000;1857.00000000000;1862.00000000000;1861.00000000000;1854.00000000000;1873.00000000000;1857.00000000000;1872.00000000000;1850.00000000000;1844.00000000000;1853.00000000000;1850.00000000000;1860.00000000000;1856.00000000000;1871.00000000000;1872.00000000000;1874.00000000000;1871.00000000000;1870.00000000000;1859.00000000000;1860.00000000000;1856.00000000000;1848.00000000000;1859.00000000000;1852.00000000000;1857.00000000000;1863.00000000000;1864.00000000000;1892.00000000000;1871.00000000000;1877.00000000000;1877.00000000000;1876.00000000000;1911.00000000000;1941.00000000000;1915.00000000000;1867.00000000000;1879.00000000000;1922.00000000000;1836.00000000000;1845.00000000000;1894.00000000000;1898.00000000000;1895.00000000000;1949.00000000000;1985.00000000000;1880.00000000000;1687.00000000000;1539.00000000000;1433.00000000000;1517.00000000000;1674.00000000000;1853.00000000000;2076.00000000000;2137.00000000000;2218.00000000000;2301.00000000000;2378.00000000000;2439.00000000000;2415.00000000000;2355.00000000000;2313.00000000000;2242.00000000000;2196.00000000000;2155.00000000000;2116.00000000000;2107.00000000000;2120.00000000000;2058.00000000000;1919.00000000000;1983.00000000000;2055.00000000000;2058.00000000000;2039.00000000000;2080.00000000000;2020.00000000000;2071.00000000000;2118.00000000000;2111.00000000000;2162.00000000000;2097.00000000000;2117.00000000000;2013.00000000000;2056.00000000000;1942.00000000000;1922.00000000000;1944.00000000000;1913.00000000000;1954.00000000000;1974.00000000000;2134.00000000000;2203.00000000000;2126.00000000000;2003.00000000000;2042.00000000000;2165.00000000000;2135.00000000000;2115.00000000000;2121.00000000000;2090.00000000000;2106.00000000000;2048.00000000000;2043.00000000000;2100.00000000000;2106.00000000000;2102.00000000000;2080.00000000000;2045.00000000000;2031.00000000000;2029.00000000000;2054.00000000000;2047.00000000000;2042.00000000000;2031.00000000000;2005.00000000000;2022.00000000000;2031.00000000000;1990.00000000000;1995.00000000000;2003.00000000000;1976.00000000000;1977.00000000000;2002.00000000000;1986.00000000000;1994.00000000000;2001.00000000000;1996.00000000000;1965.00000000000;1987.00000000000;1969.00000000000;1975.00000000000;1967.00000000000;1987.00000000000;1975.00000000000;1991.00000000000;1971.00000000000;1983.00000000000;1989.00000000000;1980.00000000000;1981.00000000000;1962.00000000000;1956.00000000000;1971.00000000000;1967.00000000000
