COMMAND 1 SAMPLE 1
Accel X : 2865.00000000000;2852.00000000000;2870.00000000000;2871.00000000000;2851.00000000000;2855.00000000000;2853.00000000000;2833.00000000000;2853.00000000000;2849.00000000000;2853.00000000000;2885.00000000000;2868.00000000000;2864.00000000000;2869.00000000000;2856.00000000000;2851.00000000000;2844.00000000000;2848.00000000000;2872.00000000000;2856.00000000000;2849.00000000000;2853.00000000000;2853.00000000000;2852.00000000000;2884.00000000000;2878.00000000000;2867.00000000000;2856.00000000000;2870.00000000000;2870.00000000000;2873.00000000000;2873.00000000000;2854.00000000000;2884.00000000000;2884.00000000000;2936.00000000000;2915.00000000000;2955.00000000000;3007.00000000000;3011.00000000000;3030.00000000000;3139.00000000000;3151.00000000000;3267.00000000000;3290.00000000000;3268.00000000000;3207.00000000000;3150.00000000000;3015.00000000000;3107.00000000000;3026.00000000000;2973.00000000000;2856.00000000000;2781.00000000000;2617.00000000000;2466.00000000000;2331.00000000000;2089.00000000000;1902.00000000000;1610.00000000000;1570.00000000000;1363.00000000000;1214.00000000000;1061.00000000000;1005.00000000000;1005.00000000000;994.000000000000;1048.00000000000;1041.00000000000;1144.00000000000;1257.00000000000;1407.00000000000;1525.00000000000;1643.00000000000;1849.00000000000;2092.00000000000;2102.00000000000;2065.00000000000;2180.00000000000;2320.00000000000;2475.00000000000;2836.00000000000;3351.00000000000;3159.00000000000;2582.00000000000;3115.00000000000;3609.00000000000;3698.00000000000;3652.00000000000;3525.00000000000;3408.00000000000;3423.00000000000;3371.00000000000;3287.00000000000;3198.00000000000;3226.00000000000;3133.00000000000;2992.00000000000;2842.00000000000;2721.00000000000;2749.00000000000;2822.00000000000;2825.00000000000;2719.00000000000;2482.00000000000;2646.00000000000;2798.00000000000;2695.00000000000;2543.00000000000;2385.00000000000;2273.00000000000;2438.00000000000;2653.00000000000;2674.00000000000;2705.00000000000;2696.00000000000;2756.00000000000;2934.00000000000;2911.00000000000;2918.00000000000;3137.00000000000;3054.00000000000;3094.00000000000;3112.00000000000;3111.00000000000;3223.00000000000;3207.00000000000;3160.00000000000;3105.00000000000;3059.00000000000;3047.00000000000;3067.00000000000;3048.00000000000;3008.00000000000;2953.00000000000;2907.00000000000;2870.00000000000;2892.00000000000;2883.00000000000;2854.00000000000;2831.00000000000;2815.00000000000;2814.00000000000;2815.00000000000;2819.00000000000;2830.00000000000;2833.00000000000;2838.00000000000;2793.00000000000
Accel Y : 2042.00000000000;2057.00000000000;2038.00000000000;2053.00000000000;2072.00000000000;2040.00000000000;2052.00000000000;2053.00000000000;2065.00000000000;2046.00000000000;2051.00000000000;2046.00000000000;2043.00000000000;2041.00000000000;2045.00000000000;2057.00000000000;2052.00000000000;2041.00000000000;2053.00000000000;2030.00000000000;2059.00000000000;2051.00000000000;2058.00000000000;2028.00000000000;2036.00000000000;2027.00000000000;2054.00000000000;2038.00000000000;2029.00000000000;2044.00000000000;2037.00000000000;2043.00000000000;2045.00000000000;2037.00000000000;2019.00000000000;2016.00000000000;2045.00000000000;2031.00000000000;2022.00000000000;2019.00000000000;2028.00000000000;1996.00000000000;1988.00000000000;1968.00000000000;1969.00000000000;1886.00000000000;1836.00000000000;1733.00000000000;1725.00000000000;1640.00000000000;1571.00000000000;1513.00000000000;1471.00000000000;1432.00000000000;1434.00000000000;1354.00000000000;1320.00000000000;1341.00000000000;1357.00000000000;1354.00000000000;1303.00000000000;1242.00000000000;1232.00000000000;1185.00000000000;1147.00000000000;1091.00000000000;1155.00000000000;1202.00000000000;1225.00000000000;1273.00000000000;1389.00000000000;1415.00000000000;1528.00000000000;1579.00000000000;1712.00000000000;1874.00000000000;2018.00000000000;2197.00000000000;2345.00000000000;2504.00000000000;2607.00000000000;2710.00000000000;2930.00000000000;2869.00000000000;2530.00000000000;2181.00000000000;2138.00000000000;2060.00000000000;2039.00000000000;2101.00000000000;2132.00000000000;2131.00000000000;2127.00000000000;2150.00000000000;2132.00000000000;2136.00000000000;2137.00000000000;2167.00000000000;2157.00000000000;2207.00000000000;2252.00000000000;2172.00000000000;2183.00000000000;2289.00000000000;2299.00000000000;2414.00000000000;2362.00000000000;2188.00000000000;2208.00000000000;2288.00000000000;2183.00000000000;1874.00000000000;1799.00000000000;1835.00000000000;1803.00000000000;1603.00000000000;1626.00000000000;1567.00000000000;1599.00000000000;1633.00000000000;1499.00000000000;1566.00000000000;1505.00000000000;1564.00000000000;1589.00000000000;1578.00000000000;1552.00000000000;1609.00000000000;1634.00000000000;1639.00000000000;1686.00000000000;1742.00000000000;1814.00000000000;1851.00000000000;1903.00000000000;1932.00000000000;1962.00000000000;1993.00000000000;2024.00000000000;2031.00000000000;2035.00000000000;2019.00000000000;2034.00000000000;2028.00000000000;2016.00000000000;2027.00000000000;2013.00000000000;2022.00000000000;2012.00000000000;2006.00000000000
Accel Z : 1887.00000000000;1849.00000000000;1855.00000000000;1858.00000000000;1883.00000000000;1866.00000000000;1865.00000000000;1856.00000000000;1873.00000000000;1865.00000000000;1866.00000000000;1882.00000000000;1880.00000000000;1871.00000000000;1903.00000000000;1884.00000000000;1865.00000000000;1881.00000000000;1864.00000000000;1906.00000000000;1861.00000000000;1878.00000000000;1871.00000000000;1874.00000000000;1885.00000000000;1887.00000000000;1876.00000000000;1876.00000000000;1874.00000000000;1861.00000000000;1877.00000000000;1884.00000000000;1874.00000000000;1890.00000000000;1855.00000000000;1887.00000000000;1904.00000000000;1876.00000000000;1858.00000000000;1921.00000000000;1917.00000000000;1956.00000000000;1942.00000000000;1939.00000000000;1960.00000000000;1994.00000000000;2042.00000000000;2056.00000000000;2046.00000000000;2008.00000000000;1995.00000000000;2031.00000000000;2020.00000000000;2003.00000000000;1955.00000000000;1970.00000000000;1963.00000000000;1953.00000000000;1948.00000000000;1906.00000000000;1883.00000000000;1800.00000000000;1785.00000000000;1727.00000000000;1715.00000000000;1689.00000000000;1741.00000000000;1709.00000000000;1696.00000000000;1718.00000000000;1689.00000000000;1691.00000000000;1717.00000000000;1706.00000000000;1713.00000000000;1644.00000000000;1701.00000000000;1707.00000000000;1650.00000000000;1606.00000000000;1605.00000000000;1587.00000000000;1991.00000000000;1977.00000000000;1756.00000000000;1540.00000000000;1802.00000000000;1958.00000000000;1963.00000000000;1952.00000000000;1924.00000000000;1886.00000000000;1932.00000000000;1986.00000000000;1924.00000000000;1923.00000000000;1913.00000000000;1897.00000000000;1856.00000000000;1826.00000000000;1794.00000000000;1751.00000000000;1760.00000000000;1804.00000000000;1752.00000000000;1721.00000000000;1746.00000000000;1775.00000000000;1827.00000000000;1884.00000000000;1891.00000000000;1846.00000000000;1854.00000000000;1859.00000000000;1807.00000000000;1907.00000000000;1944.00000000000;1890.00000000000;1896.00000000000;1882.00000000000;1854.00000000000;1929.00000000000;1904.00000000000;1864.00000000000;1853.00000000000;1817.00000000000;1854.00000000000;1862.00000000000;1854.00000000000;1828.00000000000;1812.00000000000;1783.00000000000;1789.00000000000;1799.00000000000;1798.00000000000;1824.00000000000;1801.00000000000;1803.00000000000;1797.00000000000;1799.00000000000;1804.00000000000;1801.00000000000;1771.00000000000;1789.00000000000;1809.00000000000;1779.00000000000;1812.00000000000;1814.00000000000;1828.00000000000;1829.00000000000
Gyro X : 2865.00000000000;2852.00000000000;2870.00000000000;2871.00000000000;2851.00000000000;2855.00000000000;2853.00000000000;2833.00000000000;2853.00000000000;2849.00000000000;2853.00000000000;2885.00000000000;2868.00000000000;2864.00000000000;2869.00000000000;2856.00000000000;2851.00000000000;2844.00000000000;2848.00000000000;2872.00000000000;2856.00000000000;2849.00000000000;2853.00000000000;2853.00000000000;2852.00000000000;2884.00000000000;2878.00000000000;2867.00000000000;2856.00000000000;2870.00000000000;2870.00000000000;2873.00000000000;2873.00000000000;2854.00000000000;2884.00000000000;2884.00000000000;2936.00000000000;2915.00000000000;2955.00000000000;3007.00000000000;3011.00000000000;3030.00000000000;3139.00000000000;3151.00000000000;3267.00000000000;3290.00000000000;3268.00000000000;3207.00000000000;3150.00000000000;3015.00000000000;3107.00000000000;3026.00000000000;2973.00000000000;2856.00000000000;2781.00000000000;2617.00000000000;2466.00000000000;2331.00000000000;2089.00000000000;1902.00000000000;1610.00000000000;1570.00000000000;1363.00000000000;1214.00000000000;1061.00000000000;1005.00000000000;1005.00000000000;994.000000000000;1048.00000000000;1041.00000000000;1144.00000000000;1257.00000000000;1407.00000000000;1525.00000000000;1643.00000000000;1849.00000000000;2092.00000000000;2102.00000000000;2065.00000000000;2180.00000000000;2320.00000000000;2475.00000000000;2836.00000000000;3351.00000000000;3159.00000000000;2582.00000000000;3115.00000000000;3609.00000000000;3698.00000000000;3652.00000000000;3525.00000000000;3408.00000000000;3423.00000000000;3371.00000000000;3287.00000000000;3198.00000000000;3226.00000000000;3133.00000000000;2992.00000000000;2842.00000000000;2721.00000000000;2749.00000000000;2822.00000000000;2825.00000000000;2719.00000000000;2482.00000000000;2646.00000000000;2798.00000000000;2695.00000000000;2543.00000000000;2385.00000000000;2273.00000000000;2438.00000000000;2653.00000000000;2674.00000000000;2705.00000000000;2696.00000000000;2756.00000000000;2934.00000000000;2911.00000000000;2918.00000000000;3137.00000000000;3054.00000000000;3094.00000000000;3112.00000000000;3111.00000000000;3223.00000000000;3207.00000000000;3160.00000000000;3105.00000000000;3059.00000000000;3047.00000000000;3067.00000000000;3048.00000000000;3008.00000000000;2953.00000000000;2907.00000000000;2870.00000000000;2892.00000000000;2883.00000000000;2854.00000000000;2831.00000000000;2815.00000000000;2814.00000000000;2815.00000000000;2819.00000000000;2830.00000000000;2833.00000000000;2838.00000000000;2793.00000000000
Gyro Y : 2042.00000000000;2057.00000000000;2038.00000000000;2053.00000000000;2072.00000000000;2040.00000000000;2052.00000000000;2053.00000000000;2065.00000000000;2046.00000000000;2051.00000000000;2046.00000000000;2043.00000000000;2041.00000000000;2045.00000000000;2057.00000000000;2052.00000000000;2041.00000000000;2053.00000000000;2030.00000000000;2059.00000000000;2051.00000000000;2058.00000000000;2028.00000000000;2036.00000000000;2027.00000000000;2054.00000000000;2038.00000000000;2029.00000000000;2044.00000000000;2037.00000000000;2043.00000000000;2045.00000000000;2037.00000000000;2019.00000000000;2016.00000000000;2045.00000000000;2031.00000000000;2022.00000000000;2019.00000000000;2028.00000000000;1996.00000000000;1988.00000000000;1968.00000000000;1969.00000000000;1886.00000000000;1836.00000000000;1733.00000000000;1725.00000000000;1640.00000000000;1571.00000000000;1513.00000000000;1471.00000000000;1432.00000000000;1434.00000000000;1354.00000000000;1320.00000000000;1341.00000000000;1357.00000000000;1354.00000000000;1303.00000000000;1242.00000000000;1232.00000000000;1185.00000000000;1147.00000000000;1091.00000000000;1155.00000000000;1202.00000000000;1225.00000000000;1273.00000000000;1389.00000000000;1415.00000000000;1528.00000000000;1579.00000000000;1712.00000000000;1874.00000000000;2018.00000000000;2197.00000000000;2345.00000000000;2504.00000000000;2607.00000000000;2710.00000000000;2930.00000000000;2869.00000000000;2530.00000000000;2181.00000000000;2138.00000000000;2060.00000000000;2039.00000000000;2101.00000000000;2132.00000000000;2131.00000000000;2127.00000000000;2150.00000000000;2132.00000000000;2136.00000000000;2137.00000000000;2167.00000000000;2157.00000000000;2207.00000000000;2252.00000000000;2172.00000000000;2183.00000000000;2289.00000000000;2299.00000000000;2414.00000000000;2362.00000000000;2188.00000000000;2208.00000000000;2288.00000000000;2183.00000000000;1874.00000000000;1799.00000000000;1835.00000000000;1803.00000000000;1603.00000000000;1626.00000000000;1567.00000000000;1599.00000000000;1633.00000000000;1499.00000000000;1566.00000000000;1505.00000000000;1564.00000000000;1589.00000000000;1578.00000000000;1552.00000000000;1609.00000000000;1634.00000000000;1639.00000000000;1686.00000000000;1742.00000000000;1814.00000000000;1851.00000000000;1903.00000000000;1932.00000000000;1962.00000000000;1993.00000000000;2024.00000000000;2031.00000000000;2035.00000000000;2019.00000000000;2034.00000000000;2028.00000000000;2016.00000000000;2027.00000000000;2013.00000000000;2022.00000000000;2012.00000000000;2006.00000000000
Gyro Z : 1887.00000000000;1849.00000000000;1855.00000000000;1858.00000000000;1883.00000000000;1866.00000000000;1865.00000000000;1856.00000000000;1873.00000000000;1865.00000000000;1866.00000000000;1882.00000000000;1880.00000000000;1871.00000000000;1903.00000000000;1884.00000000000;1865.00000000000;1881.00000000000;1864.00000000000;1906.00000000000;1861.00000000000;1878.00000000000;1871.00000000000;1874.00000000000;1885.00000000000;1887.00000000000;1876.00000000000;1876.00000000000;1874.00000000000;1861.00000000000;1877.00000000000;1884.00000000000;1874.00000000000;1890.00000000000;1855.00000000000;1887.00000000000;1904.00000000000;1876.00000000000;1858.00000000000;1921.00000000000;1917.00000000000;1956.00000000000;1942.00000000000;1939.00000000000;1960.00000000000;1994.00000000000;2042.00000000000;2056.00000000000;2046.00000000000;2008.00000000000;1995.00000000000;2031.00000000000;2020.00000000000;2003.00000000000;1955.00000000000;1970.00000000000;1963.00000000000;1953.00000000000;1948.00000000000;1906.00000000000;1883.00000000000;1800.00000000000;1785.00000000000;1727.00000000000;1715.00000000000;1689.00000000000;1741.00000000000;1709.00000000000;1696.00000000000;1718.00000000000;1689.00000000000;1691.00000000000;1717.00000000000;1706.00000000000;1713.00000000000;1644.00000000000;1701.00000000000;1707.00000000000;1650.00000000000;1606.00000000000;1605.00000000000;1587.00000000000;1991.00000000000;1977.00000000000;1756.00000000000;1540.00000000000;1802.00000000000;1958.00000000000;1963.00000000000;1952.00000000000;1924.00000000000;1886.00000000000;1932.00000000000;1986.00000000000;1924.00000000000;1923.00000000000;1913.00000000000;1897.00000000000;1856.00000000000;1826.00000000000;1794.00000000000;1751.00000000000;1760.00000000000;1804.00000000000;1752.00000000000;1721.00000000000;1746.00000000000;1775.00000000000;1827.00000000000;1884.00000000000;1891.00000000000;1846.00000000000;1854.00000000000;1859.00000000000;1807.00000000000;1907.00000000000;1944.00000000000;1890.00000000000;1896.00000000000;1882.00000000000;1854.00000000000;1929.00000000000;1904.00000000000;1864.00000000000;1853.00000000000;1817.00000000000;1854.00000000000;1862.00000000000;1854.00000000000;1828.00000000000;1812.00000000000;1783.00000000000;1789.00000000000;1799.00000000000;1798.00000000000;1824.00000000000;1801.00000000000;1803.00000000000;1797.00000000000;1799.00000000000;1804.00000000000;1801.00000000000;1771.00000000000;1789.00000000000;1809.00000000000;1779.00000000000;1812.00000000000;1814.00000000000;1828.00000000000;1829.00000000000
