COMMAND 5 SAMPLE 1
Accel X : 2874.00000000000;2868.00000000000;2855.00000000000;2846.00000000000;2831.00000000000;2861.00000000000;2872.00000000000;2841.00000000000;2851.00000000000;2853.00000000000;2868.00000000000;2847.00000000000;2860.00000000000;2886.00000000000;2930.00000000000;2877.00000000000;2830.00000000000;2794.00000000000;2843.00000000000;2827.00000000000;2843.00000000000;2868.00000000000;2840.00000000000;2852.00000000000;2857.00000000000;2853.00000000000;2847.00000000000;2848.00000000000;2835.00000000000;2827.00000000000;2849.00000000000;2835.00000000000;2857.00000000000;2858.00000000000;2841.00000000000;2842.00000000000;2853.00000000000;2853.00000000000;2831.00000000000;2845.00000000000;2840.00000000000;2876.00000000000;2851.00000000000;2833.00000000000;2850.00000000000;2862.00000000000;2898.00000000000;2866.00000000000;2827.00000000000;2823.00000000000;2859.00000000000;2911.00000000000;2871.00000000000;2789.00000000000;2808.00000000000;2776.00000000000;2771.00000000000;2785.00000000000;2791.00000000000;2813.00000000000;2812.00000000000;2802.00000000000;2817.00000000000;2812.00000000000;2818.00000000000;2819.00000000000;2805.00000000000;2820.00000000000;2814.00000000000;2821.00000000000;2812.00000000000;2799.00000000000;2817.00000000000;2807.00000000000;2818.00000000000;2807.00000000000;2817.00000000000;2821.00000000000;2826.00000000000;2827.00000000000;2819.00000000000;2798.00000000000;2810.00000000000;2790.00000000000;2795.00000000000;2807.00000000000;2805.00000000000;2803.00000000000;2795.00000000000;2782.00000000000;2794.00000000000;2828.00000000000;2801.00000000000;2803.00000000000;2814.00000000000;2809.00000000000;2815.00000000000;2784.00000000000;2806.00000000000;2814.00000000000;2825.00000000000;2806.00000000000;2811.00000000000;2811.00000000000;2799.00000000000;2785.00000000000;2799.00000000000;2788.00000000000;2795.00000000000;2812.00000000000;2816.00000000000;2805.00000000000;2800.00000000000;2825.00000000000;2810.00000000000;2827.00000000000;2808.00000000000;2803.00000000000;2806.00000000000;2795.00000000000;2800.00000000000;2803.00000000000;2807.00000000000;2806.00000000000;2809.00000000000;2800.00000000000;2813.00000000000;2792.00000000000;2810.00000000000;2803.00000000000;2790.00000000000;2794.00000000000;2799.00000000000;2818.00000000000;2787.00000000000;2809.00000000000;2800.00000000000;2806.00000000000;2802.00000000000;2824.00000000000;2827.00000000000;2813.00000000000;2831.00000000000;2807.00000000000;2790.00000000000;2810.00000000000;2832.00000000000;2816.00000000000;2798.00000000000;2800.00000000000
Accel Y : 2082.00000000000;2100.00000000000;2095.00000000000;2090.00000000000;2090.00000000000;2077.00000000000;2143.00000000000;2078.00000000000;2101.00000000000;2096.00000000000;2110.00000000000;2119.00000000000;2091.00000000000;2049.00000000000;2107.00000000000;2103.00000000000;2070.00000000000;2100.00000000000;2085.00000000000;2092.00000000000;2123.00000000000;2099.00000000000;2088.00000000000;2086.00000000000;2097.00000000000;2086.00000000000;2125.00000000000;2103.00000000000;2086.00000000000;2117.00000000000;2127.00000000000;2090.00000000000;2069.00000000000;2092.00000000000;2093.00000000000;2113.00000000000;2094.00000000000;2099.00000000000;2105.00000000000;2092.00000000000;2105.00000000000;2095.00000000000;2114.00000000000;2103.00000000000;2151.00000000000;2132.00000000000;2097.00000000000;2103.00000000000;2109.00000000000;2121.00000000000;2110.00000000000;2126.00000000000;2128.00000000000;2131.00000000000;2111.00000000000;2115.00000000000;2111.00000000000;2133.00000000000;2135.00000000000;2120.00000000000;2123.00000000000;2114.00000000000;2136.00000000000;2123.00000000000;2143.00000000000;2128.00000000000;2135.00000000000;2132.00000000000;2131.00000000000;2129.00000000000;2137.00000000000;2125.00000000000;2121.00000000000;2127.00000000000;2119.00000000000;2129.00000000000;2127.00000000000;2119.00000000000;2118.00000000000;2111.00000000000;2121.00000000000;2131.00000000000;2127.00000000000;2135.00000000000;2119.00000000000;2126.00000000000;2130.00000000000;2142.00000000000;2131.00000000000;2142.00000000000;2128.00000000000;2117.00000000000;2123.00000000000;2141.00000000000;2111.00000000000;2110.00000000000;2127.00000000000;2129.00000000000;2116.00000000000;2129.00000000000;2115.00000000000;2130.00000000000;2147.00000000000;2141.00000000000;2132.00000000000;2142.00000000000;2133.00000000000;2121.00000000000;2133.00000000000;2117.00000000000;2124.00000000000;2137.00000000000;2143.00000000000;2109.00000000000;2139.00000000000;2142.00000000000;2128.00000000000;2122.00000000000;2131.00000000000;2136.00000000000;2130.00000000000;2130.00000000000;2122.00000000000;2133.00000000000;2134.00000000000;2125.00000000000;2137.00000000000;2135.00000000000;2129.00000000000;2163.00000000000;2123.00000000000;2140.00000000000;2132.00000000000;2135.00000000000;2156.00000000000;2130.00000000000;2129.00000000000;2135.00000000000;2138.00000000000;2141.00000000000;2129.00000000000;2137.00000000000;2139.00000000000;2137.00000000000;2146.00000000000;2141.00000000000;2127.00000000000;2133.00000000000;2121.00000000000;2135.00000000000
Accel Z : 1870.00000000000;1867.00000000000;1871.00000000000;1872.00000000000;1858.00000000000;1847.00000000000;1856.00000000000;1851.00000000000;1867.00000000000;1866.00000000000;1849.00000000000;1854.00000000000;1877.00000000000;1940.00000000000;1893.00000000000;1892.00000000000;1889.00000000000;1891.00000000000;1882.00000000000;1938.00000000000;1942.00000000000;1940.00000000000;1935.00000000000;1897.00000000000;1911.00000000000;1913.00000000000;1933.00000000000;1928.00000000000;1950.00000000000;1947.00000000000;1903.00000000000;1937.00000000000;1957.00000000000;1920.00000000000;1939.00000000000;1931.00000000000;1925.00000000000;1947.00000000000;1949.00000000000;1936.00000000000;1932.00000000000;1940.00000000000;1931.00000000000;1948.00000000000;1953.00000000000;1953.00000000000;1972.00000000000;1978.00000000000;1955.00000000000;1952.00000000000;1959.00000000000;1993.00000000000;2029.00000000000;2029.00000000000;2023.00000000000;2019.00000000000;2028.00000000000;2039.00000000000;2045.00000000000;2057.00000000000;2043.00000000000;2019.00000000000;2038.00000000000;2048.00000000000;2044.00000000000;2049.00000000000;2044.00000000000;2061.00000000000;2024.00000000000;2040.00000000000;2027.00000000000;2042.00000000000;2050.00000000000;2037.00000000000;2025.00000000000;2022.00000000000;2034.00000000000;2042.00000000000;2061.00000000000;2049.00000000000;2048.00000000000;2055.00000000000;2043.00000000000;2043.00000000000;2009.00000000000;2048.00000000000;2076.00000000000;2057.00000000000;2055.00000000000;2058.00000000000;2042.00000000000;2026.00000000000;2043.00000000000;2046.00000000000;2058.00000000000;2059.00000000000;2037.00000000000;2061.00000000000;2061.00000000000;2071.00000000000;2053.00000000000;2041.00000000000;2059.00000000000;2043.00000000000;2048.00000000000;2063.00000000000;2045.00000000000;2058.00000000000;2035.00000000000;2034.00000000000;2049.00000000000;2043.00000000000;2044.00000000000;2064.00000000000;2027.00000000000;2047.00000000000;2052.00000000000;2066.00000000000;2054.00000000000;2033.00000000000;2064.00000000000;2053.00000000000;2033.00000000000;2047.00000000000;2035.00000000000;2059.00000000000;2065.00000000000;2056.00000000000;2027.00000000000;2063.00000000000;2066.00000000000;2068.00000000000;2041.00000000000;2050.00000000000;2055.00000000000;2051.00000000000;2035.00000000000;2062.00000000000;2078.00000000000;2056.00000000000;2056.00000000000;2066.00000000000;2037.00000000000;2055.00000000000;2074.00000000000;2056.00000000000;2050.00000000000;2052.00000000000;2046.00000000000;2057.00000000000
Gyro X : 2874.00000000000;2868.00000000000;2855.00000000000;2846.00000000000;2831.00000000000;2861.00000000000;2872.00000000000;2841.00000000000;2851.00000000000;2853.00000000000;2868.00000000000;2847.00000000000;2860.00000000000;2886.00000000000;2930.00000000000;2877.00000000000;2830.00000000000;2794.00000000000;2843.00000000000;2827.00000000000;2843.00000000000;2868.00000000000;2840.00000000000;2852.00000000000;2857.00000000000;2853.00000000000;2847.00000000000;2848.00000000000;2835.00000000000;2827.00000000000;2849.00000000000;2835.00000000000;2857.00000000000;2858.00000000000;2841.00000000000;2842.00000000000;2853.00000000000;2853.00000000000;2831.00000000000;2845.00000000000;2840.00000000000;2876.00000000000;2851.00000000000;2833.00000000000;2850.00000000000;2862.00000000000;2898.00000000000;2866.00000000000;2827.00000000000;2823.00000000000;2859.00000000000;2911.00000000000;2871.00000000000;2789.00000000000;2808.00000000000;2776.00000000000;2771.00000000000;2785.00000000000;2791.00000000000;2813.00000000000;2812.00000000000;2802.00000000000;2817.00000000000;2812.00000000000;2818.00000000000;2819.00000000000;2805.00000000000;2820.00000000000;2814.00000000000;2821.00000000000;2812.00000000000;2799.00000000000;2817.00000000000;2807.00000000000;2818.00000000000;2807.00000000000;2817.00000000000;2821.00000000000;2826.00000000000;2827.00000000000;2819.00000000000;2798.00000000000;2810.00000000000;2790.00000000000;2795.00000000000;2807.00000000000;2805.00000000000;2803.00000000000;2795.00000000000;2782.00000000000;2794.00000000000;2828.00000000000;2801.00000000000;2803.00000000000;2814.00000000000;2809.00000000000;2815.00000000000;2784.00000000000;2806.00000000000;2814.00000000000;2825.00000000000;2806.00000000000;2811.00000000000;2811.00000000000;2799.00000000000;2785.00000000000;2799.00000000000;2788.00000000000;2795.00000000000;2812.00000000000;2816.00000000000;2805.00000000000;2800.00000000000;2825.00000000000;2810.00000000000;2827.00000000000;2808.00000000000;2803.00000000000;2806.00000000000;2795.00000000000;2800.00000000000;2803.00000000000;2807.00000000000;2806.00000000000;2809.00000000000;2800.00000000000;2813.00000000000;2792.00000000000;2810.00000000000;2803.00000000000;2790.00000000000;2794.00000000000;2799.00000000000;2818.00000000000;2787.00000000000;2809.00000000000;2800.00000000000;2806.00000000000;2802.00000000000;2824.00000000000;2827.00000000000;2813.00000000000;2831.00000000000;2807.00000000000;2790.00000000000;2810.00000000000;2832.00000000000;2816.00000000000;2798.00000000000;2800.00000000000
Gyro Y : 2082.00000000000;2100.00000000000;2095.00000000000;2090.00000000000;2090.00000000000;2077.00000000000;2143.00000000000;2078.00000000000;2101.00000000000;2096.00000000000;2110.00000000000;2119.00000000000;2091.00000000000;2049.00000000000;2107.00000000000;2103.00000000000;2070.00000000000;2100.00000000000;2085.00000000000;2092.00000000000;2123.00000000000;2099.00000000000;2088.00000000000;2086.00000000000;2097.00000000000;2086.00000000000;2125.00000000000;2103.00000000000;2086.00000000000;2117.00000000000;2127.00000000000;2090.00000000000;2069.00000000000;2092.00000000000;2093.00000000000;2113.00000000000;2094.00000000000;2099.00000000000;2105.00000000000;2092.00000000000;2105.00000000000;2095.00000000000;2114.00000000000;2103.00000000000;2151.00000000000;2132.00000000000;2097.00000000000;2103.00000000000;2109.00000000000;2121.00000000000;2110.00000000000;2126.00000000000;2128.00000000000;2131.00000000000;2111.00000000000;2115.00000000000;2111.00000000000;2133.00000000000;2135.00000000000;2120.00000000000;2123.00000000000;2114.00000000000;2136.00000000000;2123.00000000000;2143.00000000000;2128.00000000000;2135.00000000000;2132.00000000000;2131.00000000000;2129.00000000000;2137.00000000000;2125.00000000000;2121.00000000000;2127.00000000000;2119.00000000000;2129.00000000000;2127.00000000000;2119.00000000000;2118.00000000000;2111.00000000000;2121.00000000000;2131.00000000000;2127.00000000000;2135.00000000000;2119.00000000000;2126.00000000000;2130.00000000000;2142.00000000000;2131.00000000000;2142.00000000000;2128.00000000000;2117.00000000000;2123.00000000000;2141.00000000000;2111.00000000000;2110.00000000000;2127.00000000000;2129.00000000000;2116.00000000000;2129.00000000000;2115.00000000000;2130.00000000000;2147.00000000000;2141.00000000000;2132.00000000000;2142.00000000000;2133.00000000000;2121.00000000000;2133.00000000000;2117.00000000000;2124.00000000000;2137.00000000000;2143.00000000000;2109.00000000000;2139.00000000000;2142.00000000000;2128.00000000000;2122.00000000000;2131.00000000000;2136.00000000000;2130.00000000000;2130.00000000000;2122.00000000000;2133.00000000000;2134.00000000000;2125.00000000000;2137.00000000000;2135.00000000000;2129.00000000000;2163.00000000000;2123.00000000000;2140.00000000000;2132.00000000000;2135.00000000000;2156.00000000000;2130.00000000000;2129.00000000000;2135.00000000000;2138.00000000000;2141.00000000000;2129.00000000000;2137.00000000000;2139.00000000000;2137.00000000000;2146.00000000000;2141.00000000000;2127.00000000000;2133.00000000000;2121.00000000000;2135.00000000000
Gyro Z : 1870.00000000000;1867.00000000000;1871.00000000000;1872.00000000000;1858.00000000000;1847.00000000000;1856.00000000000;1851.00000000000;1867.00000000000;1866.00000000000;1849.00000000000;1854.00000000000;1877.00000000000;1940.00000000000;1893.00000000000;1892.00000000000;1889.00000000000;1891.00000000000;1882.00000000000;1938.00000000000;1942.00000000000;1940.00000000000;1935.00000000000;1897.00000000000;1911.00000000000;1913.00000000000;1933.00000000000;1928.00000000000;1950.00000000000;1947.00000000000;1903.00000000000;1937.00000000000;1957.00000000000;1920.00000000000;1939.00000000000;1931.00000000000;1925.00000000000;1947.00000000000;1949.00000000000;1936.00000000000;1932.00000000000;1940.00000000000;1931.00000000000;1948.00000000000;1953.00000000000;1953.00000000000;1972.00000000000;1978.00000000000;1955.00000000000;1952.00000000000;1959.00000000000;1993.00000000000;2029.00000000000;2029.00000000000;2023.00000000000;2019.00000000000;2028.00000000000;2039.00000000000;2045.00000000000;2057.00000000000;2043.00000000000;2019.00000000000;2038.00000000000;2048.00000000000;2044.00000000000;2049.00000000000;2044.00000000000;2061.00000000000;2024.00000000000;2040.00000000000;2027.00000000000;2042.00000000000;2050.00000000000;2037.00000000000;2025.00000000000;2022.00000000000;2034.00000000000;2042.00000000000;2061.00000000000;2049.00000000000;2048.00000000000;2055.00000000000;2043.00000000000;2043.00000000000;2009.00000000000;2048.00000000000;2076.00000000000;2057.00000000000;2055.00000000000;2058.00000000000;2042.00000000000;2026.00000000000;2043.00000000000;2046.00000000000;2058.00000000000;2059.00000000000;2037.00000000000;2061.00000000000;2061.00000000000;2071.00000000000;2053.00000000000;2041.00000000000;2059.00000000000;2043.00000000000;2048.00000000000;2063.00000000000;2045.00000000000;2058.00000000000;2035.00000000000;2034.00000000000;2049.00000000000;2043.00000000000;2044.00000000000;2064.00000000000;2027.00000000000;2047.00000000000;2052.00000000000;2066.00000000000;2054.00000000000;2033.00000000000;2064.00000000000;2053.00000000000;2033.00000000000;2047.00000000000;2035.00000000000;2059.00000000000;2065.00000000000;2056.00000000000;2027.00000000000;2063.00000000000;2066.00000000000;2068.00000000000;2041.00000000000;2050.00000000000;2055.00000000000;2051.00000000000;2035.00000000000;2062.00000000000;2078.00000000000;2056.00000000000;2056.00000000000;2066.00000000000;2037.00000000000;2055.00000000000;2074.00000000000;2056.00000000000;2050.00000000000;2052.00000000000;2046.00000000000;2057.00000000000
