COMMAND 2 SAMPLE 1
Accel X : 2943.00000000000;2924.00000000000;2910.00000000000;2896.00000000000;2856.00000000000;2879.00000000000;2859.00000000000;2850.00000000000;2835.00000000000;2825.00000000000;2839.00000000000;2841.00000000000;2808.00000000000;2806.00000000000;2808.00000000000;2819.00000000000;2828.00000000000;2833.00000000000;2826.00000000000;2853.00000000000;2852.00000000000;2849.00000000000;2838.00000000000;2853.00000000000;2856.00000000000;2867.00000000000;2854.00000000000;2851.00000000000;2859.00000000000;2844.00000000000;2855.00000000000;2834.00000000000;2857.00000000000;2828.00000000000;2842.00000000000;2828.00000000000;2839.00000000000;2864.00000000000;2848.00000000000;2824.00000000000;2828.00000000000;2876.00000000000;2862.00000000000;2849.00000000000;2831.00000000000;2817.00000000000;2860.00000000000;2889.00000000000;2916.00000000000;2924.00000000000;2904.00000000000;2852.00000000000;2891.00000000000;2958.00000000000;3048.00000000000;3029.00000000000;2914.00000000000;2892.00000000000;2883.00000000000;3044.00000000000;2895.00000000000;2764.00000000000;2800.00000000000;2970.00000000000;2820.00000000000;2781.00000000000;2774.00000000000;2705.00000000000;2804.00000000000;2717.00000000000;2727.00000000000;2729.00000000000;2702.00000000000;2606.00000000000;2596.00000000000;2569.00000000000;2586.00000000000;2576.00000000000;2559.00000000000;2551.00000000000;2525.00000000000;2568.00000000000;2599.00000000000;2711.00000000000;2762.00000000000;2759.00000000000;2743.00000000000;2695.00000000000;2806.00000000000;2891.00000000000;2851.00000000000;2704.00000000000;2697.00000000000;2751.00000000000;2830.00000000000;2843.00000000000;2791.00000000000;2752.00000000000;2735.00000000000;2875.00000000000;2929.00000000000;3031.00000000000;2868.00000000000;2724.00000000000;2830.00000000000;3035.00000000000;3207.00000000000;3175.00000000000;2888.00000000000;2720.00000000000;2925.00000000000;3089.00000000000;3175.00000000000;3142.00000000000;3081.00000000000;3049.00000000000;3103.00000000000;3024.00000000000;2923.00000000000;2803.00000000000;2832.00000000000;2856.00000000000;2877.00000000000;2912.00000000000;2864.00000000000;2818.00000000000;2805.00000000000;2828.00000000000;2861.00000000000;2863.00000000000;2854.00000000000;2860.00000000000;2828.00000000000;2838.00000000000;2855.00000000000;2869.00000000000;2879.00000000000;2879.00000000000;2860.00000000000;2867.00000000000;2871.00000000000;2878.00000000000;2878.00000000000;2885.00000000000;2853.00000000000;2892.00000000000;2879.00000000000;2863.00000000000;2867.00000000000;2881.00000000000
Accel Y : 2199.00000000000;2215.00000000000;2208.00000000000;2226.00000000000;2217.00000000000;2221.00000000000;2225.00000000000;2221.00000000000;2204.00000000000;2227.00000000000;2219.00000000000;2231.00000000000;2211.00000000000;2208.00000000000;2193.00000000000;2210.00000000000;2222.00000000000;2199.00000000000;2186.00000000000;2193.00000000000;2203.00000000000;2165.00000000000;2191.00000000000;2186.00000000000;2187.00000000000;2181.00000000000;2202.00000000000;2180.00000000000;2187.00000000000;2175.00000000000;2205.00000000000;2190.00000000000;2203.00000000000;2202.00000000000;2203.00000000000;2202.00000000000;2195.00000000000;2186.00000000000;2214.00000000000;2217.00000000000;2200.00000000000;2225.00000000000;2230.00000000000;2261.00000000000;2247.00000000000;2243.00000000000;2267.00000000000;2296.00000000000;2302.00000000000;2339.00000000000;2336.00000000000;2360.00000000000;2435.00000000000;2475.00000000000;2548.00000000000;2611.00000000000;2643.00000000000;2641.00000000000;2694.00000000000;2761.00000000000;2729.00000000000;2683.00000000000;2717.00000000000;2764.00000000000;2751.00000000000;2780.00000000000;2788.00000000000;2788.00000000000;2731.00000000000;2683.00000000000;2631.00000000000;2519.00000000000;2340.00000000000;2198.00000000000;2130.00000000000;2053.00000000000;1984.00000000000;1935.00000000000;1906.00000000000;1893.00000000000;1849.00000000000;1830.00000000000;1864.00000000000;1870.00000000000;1893.00000000000;1961.00000000000;1978.00000000000;2037.00000000000;2008.00000000000;2014.00000000000;2070.00000000000;2213.00000000000;2211.00000000000;2228.00000000000;2310.00000000000;2337.00000000000;2415.00000000000;2485.00000000000;2578.00000000000;2619.00000000000;2675.00000000000;2709.00000000000;2635.00000000000;2594.00000000000;2707.00000000000;2778.00000000000;2682.00000000000;2510.00000000000;2412.00000000000;2387.00000000000;2405.00000000000;2339.00000000000;2284.00000000000;2285.00000000000;2240.00000000000;2238.00000000000;2271.00000000000;2216.00000000000;2211.00000000000;2209.00000000000;2174.00000000000;2184.00000000000;2169.00000000000;2154.00000000000;2129.00000000000;2131.00000000000;2115.00000000000;2119.00000000000;2102.00000000000;2128.00000000000;2118.00000000000;2098.00000000000;2093.00000000000;2117.00000000000;2118.00000000000;2125.00000000000;2142.00000000000;2118.00000000000;2122.00000000000;2123.00000000000;2115.00000000000;2128.00000000000;2135.00000000000;2153.00000000000;2153.00000000000;2138.00000000000;2146.00000000000;2136.00000000000;2135.00000000000;2127.00000000000
Accel Z : 1885.00000000000;1863.00000000000;1879.00000000000;1888.00000000000;1884.00000000000;1884.00000000000;1876.00000000000;1881.00000000000;1861.00000000000;1836.00000000000;1844.00000000000;1849.00000000000;1881.00000000000;1860.00000000000;1854.00000000000;1848.00000000000;1872.00000000000;1844.00000000000;1854.00000000000;1869.00000000000;1856.00000000000;1874.00000000000;1872.00000000000;1856.00000000000;1859.00000000000;1886.00000000000;1890.00000000000;1884.00000000000;1893.00000000000;1880.00000000000;1875.00000000000;1876.00000000000;1877.00000000000;1879.00000000000;1903.00000000000;1895.00000000000;1882.00000000000;1873.00000000000;1874.00000000000;1880.00000000000;1881.00000000000;1931.00000000000;1947.00000000000;1991.00000000000;2036.00000000000;2096.00000000000;2166.00000000000;2245.00000000000;2297.00000000000;2336.00000000000;2340.00000000000;2351.00000000000;2393.00000000000;2420.00000000000;2513.00000000000;2509.00000000000;2480.00000000000;2434.00000000000;2427.00000000000;2451.00000000000;2331.00000000000;2268.00000000000;2175.00000000000;2031.00000000000;1925.00000000000;1841.00000000000;1667.00000000000;1566.00000000000;1575.00000000000;1359.00000000000;1239.00000000000;1172.00000000000;1027.00000000000;975.000000000000;907.000000000000;892.000000000000;865.000000000000;845.000000000000;869.000000000000;907.000000000000;945.000000000000;957.000000000000;1003.00000000000;1046.00000000000;1102.00000000000;1119.00000000000;1099.00000000000;1103.00000000000;1198.00000000000;1248.00000000000;1275.00000000000;1245.00000000000;1231.00000000000;1292.00000000000;1406.00000000000;1427.00000000000;1410.00000000000;1390.00000000000;1495.00000000000;1697.00000000000;1840.00000000000;1937.00000000000;1867.00000000000;1949.00000000000;2246.00000000000;2504.00000000000;2559.00000000000;2458.00000000000;2379.00000000000;2337.00000000000;2352.00000000000;2342.00000000000;2303.00000000000;2217.00000000000;2189.00000000000;2130.00000000000;2096.00000000000;2008.00000000000;1934.00000000000;1870.00000000000;1842.00000000000;1780.00000000000;1724.00000000000;1724.00000000000;1714.00000000000;1701.00000000000;1693.00000000000;1681.00000000000;1676.00000000000;1691.00000000000;1715.00000000000;1700.00000000000;1710.00000000000;1734.00000000000;1765.00000000000;1771.00000000000;1746.00000000000;1777.00000000000;1759.00000000000;1789.00000000000;1805.00000000000;1776.00000000000;1760.00000000000;1781.00000000000;1790.00000000000;1778.00000000000;1759.00000000000;1779.00000000000;1768.00000000000;1790.00000000000
Gyro X : 2943.00000000000;2924.00000000000;2910.00000000000;2896.00000000000;2856.00000000000;2879.00000000000;2859.00000000000;2850.00000000000;2835.00000000000;2825.00000000000;2839.00000000000;2841.00000000000;2808.00000000000;2806.00000000000;2808.00000000000;2819.00000000000;2828.00000000000;2833.00000000000;2826.00000000000;2853.00000000000;2852.00000000000;2849.00000000000;2838.00000000000;2853.00000000000;2856.00000000000;2867.00000000000;2854.00000000000;2851.00000000000;2859.00000000000;2844.00000000000;2855.00000000000;2834.00000000000;2857.00000000000;2828.00000000000;2842.00000000000;2828.00000000000;2839.00000000000;2864.00000000000;2848.00000000000;2824.00000000000;2828.00000000000;2876.00000000000;2862.00000000000;2849.00000000000;2831.00000000000;2817.00000000000;2860.00000000000;2889.00000000000;2916.00000000000;2924.00000000000;2904.00000000000;2852.00000000000;2891.00000000000;2958.00000000000;3048.00000000000;3029.00000000000;2914.00000000000;2892.00000000000;2883.00000000000;3044.00000000000;2895.00000000000;2764.00000000000;2800.00000000000;2970.00000000000;2820.00000000000;2781.00000000000;2774.00000000000;2705.00000000000;2804.00000000000;2717.00000000000;2727.00000000000;2729.00000000000;2702.00000000000;2606.00000000000;2596.00000000000;2569.00000000000;2586.00000000000;2576.00000000000;2559.00000000000;2551.00000000000;2525.00000000000;2568.00000000000;2599.00000000000;2711.00000000000;2762.00000000000;2759.00000000000;2743.00000000000;2695.00000000000;2806.00000000000;2891.00000000000;2851.00000000000;2704.00000000000;2697.00000000000;2751.00000000000;2830.00000000000;2843.00000000000;2791.00000000000;2752.00000000000;2735.00000000000;2875.00000000000;2929.00000000000;3031.00000000000;2868.00000000000;2724.00000000000;2830.00000000000;3035.00000000000;3207.00000000000;3175.00000000000;2888.00000000000;2720.00000000000;2925.00000000000;3089.00000000000;3175.00000000000;3142.00000000000;3081.00000000000;3049.00000000000;3103.00000000000;3024.00000000000;2923.00000000000;2803.00000000000;2832.00000000000;2856.00000000000;2877.00000000000;2912.00000000000;2864.00000000000;2818.00000000000;2805.00000000000;2828.00000000000;2861.00000000000;2863.00000000000;2854.00000000000;2860.00000000000;2828.00000000000;2838.00000000000;2855.00000000000;2869.00000000000;2879.00000000000;2879.00000000000;2860.00000000000;2867.00000000000;2871.00000000000;2878.00000000000;2878.00000000000;2885.00000000000;2853.00000000000;2892.00000000000;2879.00000000000;2863.00000000000;2867.00000000000;2881.00000000000
Gyro Y : 2199.00000000000;2215.00000000000;2208.00000000000;2226.00000000000;2217.00000000000;2221.00000000000;2225.00000000000;2221.00000000000;2204.00000000000;2227.00000000000;2219.00000000000;2231.00000000000;2211.00000000000;2208.00000000000;2193.00000000000;2210.00000000000;2222.00000000000;2199.00000000000;2186.00000000000;2193.00000000000;2203.00000000000;2165.00000000000;2191.00000000000;2186.00000000000;2187.00000000000;2181.00000000000;2202.00000000000;2180.00000000000;2187.00000000000;2175.00000000000;2205.00000000000;2190.00000000000;2203.00000000000;2202.00000000000;2203.00000000000;2202.00000000000;2195.00000000000;2186.00000000000;2214.00000000000;2217.00000000000;2200.00000000000;2225.00000000000;2230.00000000000;2261.00000000000;2247.00000000000;2243.00000000000;2267.00000000000;2296.00000000000;2302.00000000000;2339.00000000000;2336.00000000000;2360.00000000000;2435.00000000000;2475.00000000000;2548.00000000000;2611.00000000000;2643.00000000000;2641.00000000000;2694.00000000000;2761.00000000000;2729.00000000000;2683.00000000000;2717.00000000000;2764.00000000000;2751.00000000000;2780.00000000000;2788.00000000000;2788.00000000000;2731.00000000000;2683.00000000000;2631.00000000000;2519.00000000000;2340.00000000000;2198.00000000000;2130.00000000000;2053.00000000000;1984.00000000000;1935.00000000000;1906.00000000000;1893.00000000000;1849.00000000000;1830.00000000000;1864.00000000000;1870.00000000000;1893.00000000000;1961.00000000000;1978.00000000000;2037.00000000000;2008.00000000000;2014.00000000000;2070.00000000000;2213.00000000000;2211.00000000000;2228.00000000000;2310.00000000000;2337.00000000000;2415.00000000000;2485.00000000000;2578.00000000000;2619.00000000000;2675.00000000000;2709.00000000000;2635.00000000000;2594.00000000000;2707.00000000000;2778.00000000000;2682.00000000000;2510.00000000000;2412.00000000000;2387.00000000000;2405.00000000000;2339.00000000000;2284.00000000000;2285.00000000000;2240.00000000000;2238.00000000000;2271.00000000000;2216.00000000000;2211.00000000000;2209.00000000000;2174.00000000000;2184.00000000000;2169.00000000000;2154.00000000000;2129.00000000000;2131.00000000000;2115.00000000000;2119.00000000000;2102.00000000000;2128.00000000000;2118.00000000000;2098.00000000000;2093.00000000000;2117.00000000000;2118.00000000000;2125.00000000000;2142.00000000000;2118.00000000000;2122.00000000000;2123.00000000000;2115.00000000000;2128.00000000000;2135.00000000000;2153.00000000000;2153.00000000000;2138.00000000000;2146.00000000000;2136.00000000000;2135.00000000000;2127.00000000000
Gyro Z : 1885.00000000000;1863.00000000000;1879.00000000000;1888.00000000000;1884.00000000000;1884.00000000000;1876.00000000000;1881.00000000000;1861.00000000000;1836.00000000000;1844.00000000000;1849.00000000000;1881.00000000000;1860.00000000000;1854.00000000000;1848.00000000000;1872.00000000000;1844.00000000000;1854.00000000000;1869.00000000000;1856.00000000000;1874.00000000000;1872.00000000000;1856.00000000000;1859.00000000000;1886.00000000000;1890.00000000000;1884.00000000000;1893.00000000000;1880.00000000000;1875.00000000000;1876.00000000000;1877.00000000000;1879.00000000000;1903.00000000000;1895.00000000000;1882.00000000000;1873.00000000000;1874.00000000000;1880.00000000000;1881.00000000000;1931.00000000000;1947.00000000000;1991.00000000000;2036.00000000000;2096.00000000000;2166.00000000000;2245.00000000000;2297.00000000000;2336.00000000000;2340.00000000000;2351.00000000000;2393.00000000000;2420.00000000000;2513.00000000000;2509.00000000000;2480.00000000000;2434.00000000000;2427.00000000000;2451.00000000000;2331.00000000000;2268.00000000000;2175.00000000000;2031.00000000000;1925.00000000000;1841.00000000000;1667.00000000000;1566.00000000000;1575.00000000000;1359.00000000000;1239.00000000000;1172.00000000000;1027.00000000000;975.000000000000;907.000000000000;892.000000000000;865.000000000000;845.000000000000;869.000000000000;907.000000000000;945.000000000000;957.000000000000;1003.00000000000;1046.00000000000;1102.00000000000;1119.00000000000;1099.00000000000;1103.00000000000;1198.00000000000;1248.00000000000;1275.00000000000;1245.00000000000;1231.00000000000;1292.00000000000;1406.00000000000;1427.00000000000;1410.00000000000;1390.00000000000;1495.00000000000;1697.00000000000;1840.00000000000;1937.00000000000;1867.00000000000;1949.00000000000;2246.00000000000;2504.00000000000;2559.00000000000;2458.00000000000;2379.00000000000;2337.00000000000;2352.00000000000;2342.00000000000;2303.00000000000;2217.00000000000;2189.00000000000;2130.00000000000;2096.00000000000;2008.00000000000;1934.00000000000;1870.00000000000;1842.00000000000;1780.00000000000;1724.00000000000;1724.00000000000;1714.00000000000;1701.00000000000;1693.00000000000;1681.00000000000;1676.00000000000;1691.00000000000;1715.00000000000;1700.00000000000;1710.00000000000;1734.00000000000;1765.00000000000;1771.00000000000;1746.00000000000;1777.00000000000;1759.00000000000;1789.00000000000;1805.00000000000;1776.00000000000;1760.00000000000;1781.00000000000;1790.00000000000;1778.00000000000;1759.00000000000;1779.00000000000;1768.00000000000;1790.00000000000
