COMMAND 6 SAMPLE 1
Accel X : 2888.00000000000;2902.00000000000;2873.00000000000;2892.00000000000;2857.00000000000;2871.00000000000;2865.00000000000;2875.00000000000;2874.00000000000;2867.00000000000;2880.00000000000;2896.00000000000;2861.00000000000;2884.00000000000;2865.00000000000;2857.00000000000;2869.00000000000;2869.00000000000;2864.00000000000;2869.00000000000;2883.00000000000;2866.00000000000;2889.00000000000;2866.00000000000;2886.00000000000;2889.00000000000;2883.00000000000;2888.00000000000;2875.00000000000;2861.00000000000;2864.00000000000;2904.00000000000;2909.00000000000;2881.00000000000;2875.00000000000;2851.00000000000;2893.00000000000;2863.00000000000;2869.00000000000;2869.00000000000;2876.00000000000;2895.00000000000;2886.00000000000;2881.00000000000;2873.00000000000;2861.00000000000;2899.00000000000;2876.00000000000;2868.00000000000;2885.00000000000;2870.00000000000;2906.00000000000;2883.00000000000;2920.00000000000;2958.00000000000;3147.00000000000;3287.00000000000;3358.00000000000;3199.00000000000;3154.00000000000;2697.00000000000;2014.00000000000;1710.00000000000;1802.00000000000;1868.00000000000;1907.00000000000;1901.00000000000;1855.00000000000;1788.00000000000;1662.00000000000;1785.00000000000;1743.00000000000;1655.00000000000;1783.00000000000;1814.00000000000;1726.00000000000;1637.00000000000;1473.00000000000;1498.00000000000;1792.00000000000;2276.00000000000;2425.00000000000;2661.00000000000;3153.00000000000;3560.00000000000;3479.00000000000;3269.00000000000;3070.00000000000;2726.00000000000;2661.00000000000;2802.00000000000;2819.00000000000;2930.00000000000;2900.00000000000;2818.00000000000;2839.00000000000;2886.00000000000;2957.00000000000;2976.00000000000;2894.00000000000;2843.00000000000;2810.00000000000;2875.00000000000;2923.00000000000;2955.00000000000;2854.00000000000;2797.00000000000;2864.00000000000;2879.00000000000;2895.00000000000;2887.00000000000;2851.00000000000;2838.00000000000;2869.00000000000;2919.00000000000;2921.00000000000;2893.00000000000;2868.00000000000;2853.00000000000;2882.00000000000;2881.00000000000;2859.00000000000;2843.00000000000;2841.00000000000;2870.00000000000;2875.00000000000;2829.00000000000;2850.00000000000;2844.00000000000;2804.00000000000;2832.00000000000;2846.00000000000;2855.00000000000;2841.00000000000;2852.00000000000;2854.00000000000;2888.00000000000;2864.00000000000;2879.00000000000;2864.00000000000;2870.00000000000;2886.00000000000;2853.00000000000;2867.00000000000;2859.00000000000;2878.00000000000;2877.00000000000;2871.00000000000;2867.00000000000;2841.00000000000
Accel Y : 2028.00000000000;2026.00000000000;2030.00000000000;2024.00000000000;2028.00000000000;2014.00000000000;2031.00000000000;2052.00000000000;2039.00000000000;2025.00000000000;2029.00000000000;2009.00000000000;2048.00000000000;2038.00000000000;2043.00000000000;2059.00000000000;2056.00000000000;2033.00000000000;2023.00000000000;2023.00000000000;2051.00000000000;2041.00000000000;2031.00000000000;2049.00000000000;2039.00000000000;2036.00000000000;2040.00000000000;2003.00000000000;2025.00000000000;2021.00000000000;2044.00000000000;2034.00000000000;2021.00000000000;2028.00000000000;2030.00000000000;2032.00000000000;2039.00000000000;2013.00000000000;2005.00000000000;2040.00000000000;2054.00000000000;2037.00000000000;2050.00000000000;2051.00000000000;2036.00000000000;2011.00000000000;2045.00000000000;2013.00000000000;2031.00000000000;2032.00000000000;2042.00000000000;2036.00000000000;2033.00000000000;2052.00000000000;2053.00000000000;2020.00000000000;2029.00000000000;2047.00000000000;2046.00000000000;2007.00000000000;1999.00000000000;1951.00000000000;2013.00000000000;2111.00000000000;2204.00000000000;2262.00000000000;2230.00000000000;2181.00000000000;2205.00000000000;2204.00000000000;2194.00000000000;2291.00000000000;2292.00000000000;2338.00000000000;2317.00000000000;2270.00000000000;2247.00000000000;2166.00000000000;2177.00000000000;2180.00000000000;2230.00000000000;2217.00000000000;2185.00000000000;2134.00000000000;2097.00000000000;2039.00000000000;2027.00000000000;2012.00000000000;2011.00000000000;2042.00000000000;2041.00000000000;2046.00000000000;2033.00000000000;2045.00000000000;2020.00000000000;2029.00000000000;2029.00000000000;2002.00000000000;2027.00000000000;2015.00000000000;2010.00000000000;2003.00000000000;2017.00000000000;2009.00000000000;2028.00000000000;2017.00000000000;2010.00000000000;2027.00000000000;2006.00000000000;2025.00000000000;2023.00000000000;2017.00000000000;2016.00000000000;2020.00000000000;2028.00000000000;2048.00000000000;2029.00000000000;2015.00000000000;2017.00000000000;2000.00000000000;2020.00000000000;2018.00000000000;2001.00000000000;1999.00000000000;1996.00000000000;1994.00000000000;1994.00000000000;2014.00000000000;2012.00000000000;1988.00000000000;1981.00000000000;2008.00000000000;1983.00000000000;1995.00000000000;2005.00000000000;1990.00000000000;2003.00000000000;2016.00000000000;1999.00000000000;2015.00000000000;2013.00000000000;2037.00000000000;2013.00000000000;2031.00000000000;2037.00000000000;2014.00000000000;2028.00000000000;2010.00000000000;2038.00000000000;2036.00000000000
Accel Z : 1778.00000000000;1789.00000000000;1785.00000000000;1778.00000000000;1785.00000000000;1789.00000000000;1785.00000000000;1803.00000000000;1772.00000000000;1786.00000000000;1782.00000000000;1813.00000000000;1767.00000000000;1788.00000000000;1791.00000000000;1754.00000000000;1779.00000000000;1803.00000000000;1775.00000000000;1770.00000000000;1782.00000000000;1797.00000000000;1774.00000000000;1769.00000000000;1769.00000000000;1765.00000000000;1787.00000000000;1756.00000000000;1789.00000000000;1770.00000000000;1745.00000000000;1765.00000000000;1787.00000000000;1762.00000000000;1783.00000000000;1790.00000000000;1765.00000000000;1783.00000000000;1783.00000000000;1791.00000000000;1763.00000000000;1778.00000000000;1775.00000000000;1769.00000000000;1767.00000000000;1763.00000000000;1782.00000000000;1797.00000000000;1764.00000000000;1763.00000000000;1779.00000000000;1789.00000000000;1750.00000000000;1776.00000000000;1743.00000000000;1813.00000000000;1843.00000000000;1877.00000000000;1815.00000000000;1865.00000000000;1856.00000000000;2012.00000000000;2234.00000000000;2422.00000000000;2590.00000000000;2678.00000000000;2624.00000000000;2587.00000000000;2656.00000000000;2628.00000000000;2679.00000000000;2702.00000000000;2697.00000000000;2654.00000000000;2703.00000000000;2704.00000000000;2669.00000000000;2669.00000000000;2638.00000000000;2453.00000000000;2171.00000000000;1792.00000000000;1414.00000000000;1369.00000000000;1466.00000000000;1437.00000000000;1498.00000000000;1527.00000000000;1505.00000000000;1483.00000000000;1482.00000000000;1511.00000000000;1515.00000000000;1531.00000000000;1515.00000000000;1483.00000000000;1474.00000000000;1479.00000000000;1442.00000000000;1470.00000000000;1485.00000000000;1482.00000000000;1473.00000000000;1474.00000000000;1492.00000000000;1496.00000000000;1489.00000000000;1484.00000000000;1487.00000000000;1500.00000000000;1520.00000000000;1507.00000000000;1487.00000000000;1503.00000000000;1517.00000000000;1528.00000000000;1549.00000000000;1532.00000000000;1525.00000000000;1557.00000000000;1543.00000000000;1516.00000000000;1518.00000000000;1513.00000000000;1506.00000000000;1532.00000000000;1516.00000000000;1497.00000000000;1520.00000000000;1512.00000000000;1518.00000000000;1499.00000000000;1499.00000000000;1519.00000000000;1511.00000000000;1534.00000000000;1523.00000000000;1520.00000000000;1522.00000000000;1507.00000000000;1516.00000000000;1547.00000000000;1516.00000000000;1500.00000000000;1512.00000000000;1509.00000000000;1540.00000000000;1527.00000000000;1524.00000000000;1517.00000000000
Gyro X : 2888.00000000000;2902.00000000000;2873.00000000000;2892.00000000000;2857.00000000000;2871.00000000000;2865.00000000000;2875.00000000000;2874.00000000000;2867.00000000000;2880.00000000000;2896.00000000000;2861.00000000000;2884.00000000000;2865.00000000000;2857.00000000000;2869.00000000000;2869.00000000000;2864.00000000000;2869.00000000000;2883.00000000000;2866.00000000000;2889.00000000000;2866.00000000000;2886.00000000000;2889.00000000000;2883.00000000000;2888.00000000000;2875.00000000000;2861.00000000000;2864.00000000000;2904.00000000000;2909.00000000000;2881.00000000000;2875.00000000000;2851.00000000000;2893.00000000000;2863.00000000000;2869.00000000000;2869.00000000000;2876.00000000000;2895.00000000000;2886.00000000000;2881.00000000000;2873.00000000000;2861.00000000000;2899.00000000000;2876.00000000000;2868.00000000000;2885.00000000000;2870.00000000000;2906.00000000000;2883.00000000000;2920.00000000000;2958.00000000000;3147.00000000000;3287.00000000000;3358.00000000000;3199.00000000000;3154.00000000000;2697.00000000000;2014.00000000000;1710.00000000000;1802.00000000000;1868.00000000000;1907.00000000000;1901.00000000000;1855.00000000000;1788.00000000000;1662.00000000000;1785.00000000000;1743.00000000000;1655.00000000000;1783.00000000000;1814.00000000000;1726.00000000000;1637.00000000000;1473.00000000000;1498.00000000000;1792.00000000000;2276.00000000000;2425.00000000000;2661.00000000000;3153.00000000000;3560.00000000000;3479.00000000000;3269.00000000000;3070.00000000000;2726.00000000000;2661.00000000000;2802.00000000000;2819.00000000000;2930.00000000000;2900.00000000000;2818.00000000000;2839.00000000000;2886.00000000000;2957.00000000000;2976.00000000000;2894.00000000000;2843.00000000000;2810.00000000000;2875.00000000000;2923.00000000000;2955.00000000000;2854.00000000000;2797.00000000000;2864.00000000000;2879.00000000000;2895.00000000000;2887.00000000000;2851.00000000000;2838.00000000000;2869.00000000000;2919.00000000000;2921.00000000000;2893.00000000000;2868.00000000000;2853.00000000000;2882.00000000000;2881.00000000000;2859.00000000000;2843.00000000000;2841.00000000000;2870.00000000000;2875.00000000000;2829.00000000000;2850.00000000000;2844.00000000000;2804.00000000000;2832.00000000000;2846.00000000000;2855.00000000000;2841.00000000000;2852.00000000000;2854.00000000000;2888.00000000000;2864.00000000000;2879.00000000000;2864.00000000000;2870.00000000000;2886.00000000000;2853.00000000000;2867.00000000000;2859.00000000000;2878.00000000000;2877.00000000000;2871.00000000000;2867.00000000000;2841.00000000000
Gyro Y : 2028.00000000000;2026.00000000000;2030.00000000000;2024.00000000000;2028.00000000000;2014.00000000000;2031.00000000000;2052.00000000000;2039.00000000000;2025.00000000000;2029.00000000000;2009.00000000000;2048.00000000000;2038.00000000000;2043.00000000000;2059.00000000000;2056.00000000000;2033.00000000000;2023.00000000000;2023.00000000000;2051.00000000000;2041.00000000000;2031.00000000000;2049.00000000000;2039.00000000000;2036.00000000000;2040.00000000000;2003.00000000000;2025.00000000000;2021.00000000000;2044.00000000000;2034.00000000000;2021.00000000000;2028.00000000000;2030.00000000000;2032.00000000000;2039.00000000000;2013.00000000000;2005.00000000000;2040.00000000000;2054.00000000000;2037.00000000000;2050.00000000000;2051.00000000000;2036.00000000000;2011.00000000000;2045.00000000000;2013.00000000000;2031.00000000000;2032.00000000000;2042.00000000000;2036.00000000000;2033.00000000000;2052.00000000000;2053.00000000000;2020.00000000000;2029.00000000000;2047.00000000000;2046.00000000000;2007.00000000000;1999.00000000000;1951.00000000000;2013.00000000000;2111.00000000000;2204.00000000000;2262.00000000000;2230.00000000000;2181.00000000000;2205.00000000000;2204.00000000000;2194.00000000000;2291.00000000000;2292.00000000000;2338.00000000000;2317.00000000000;2270.00000000000;2247.00000000000;2166.00000000000;2177.00000000000;2180.00000000000;2230.00000000000;2217.00000000000;2185.00000000000;2134.00000000000;2097.00000000000;2039.00000000000;2027.00000000000;2012.00000000000;2011.00000000000;2042.00000000000;2041.00000000000;2046.00000000000;2033.00000000000;2045.00000000000;2020.00000000000;2029.00000000000;2029.00000000000;2002.00000000000;2027.00000000000;2015.00000000000;2010.00000000000;2003.00000000000;2017.00000000000;2009.00000000000;2028.00000000000;2017.00000000000;2010.00000000000;2027.00000000000;2006.00000000000;2025.00000000000;2023.00000000000;2017.00000000000;2016.00000000000;2020.00000000000;2028.00000000000;2048.00000000000;2029.00000000000;2015.00000000000;2017.00000000000;2000.00000000000;2020.00000000000;2018.00000000000;2001.00000000000;1999.00000000000;1996.00000000000;1994.00000000000;1994.00000000000;2014.00000000000;2012.00000000000;1988.00000000000;1981.00000000000;2008.00000000000;1983.00000000000;1995.00000000000;2005.00000000000;1990.00000000000;2003.00000000000;2016.00000000000;1999.00000000000;2015.00000000000;2013.00000000000;2037.00000000000;2013.00000000000;2031.00000000000;2037.00000000000;2014.00000000000;2028.00000000000;2010.00000000000;2038.00000000000;2036.00000000000
Gyro Z : 1778.00000000000;1789.00000000000;1785.00000000000;1778.00000000000;1785.00000000000;1789.00000000000;1785.00000000000;1803.00000000000;1772.00000000000;1786.00000000000;1782.00000000000;1813.00000000000;1767.00000000000;1788.00000000000;1791.00000000000;1754.00000000000;1779.00000000000;1803.00000000000;1775.00000000000;1770.00000000000;1782.00000000000;1797.00000000000;1774.00000000000;1769.00000000000;1769.00000000000;1765.00000000000;1787.00000000000;1756.00000000000;1789.00000000000;1770.00000000000;1745.00000000000;1765.00000000000;1787.00000000000;1762.00000000000;1783.00000000000;1790.00000000000;1765.00000000000;1783.00000000000;1783.00000000000;1791.00000000000;1763.00000000000;1778.00000000000;1775.00000000000;1769.00000000000;1767.00000000000;1763.00000000000;1782.00000000000;1797.00000000000;1764.00000000000;1763.00000000000;1779.00000000000;1789.00000000000;1750.00000000000;1776.00000000000;1743.00000000000;1813.00000000000;1843.00000000000;1877.00000000000;1815.00000000000;1865.00000000000;1856.00000000000;2012.00000000000;2234.00000000000;2422.00000000000;2590.00000000000;2678.00000000000;2624.00000000000;2587.00000000000;2656.00000000000;2628.00000000000;2679.00000000000;2702.00000000000;2697.00000000000;2654.00000000000;2703.00000000000;2704.00000000000;2669.00000000000;2669.00000000000;2638.00000000000;2453.00000000000;2171.00000000000;1792.00000000000;1414.00000000000;1369.00000000000;1466.00000000000;1437.00000000000;1498.00000000000;1527.00000000000;1505.00000000000;1483.00000000000;1482.00000000000;1511.00000000000;1515.00000000000;1531.00000000000;1515.00000000000;1483.00000000000;1474.00000000000;1479.00000000000;1442.00000000000;1470.00000000000;1485.00000000000;1482.00000000000;1473.00000000000;1474.00000000000;1492.00000000000;1496.00000000000;1489.00000000000;1484.00000000000;1487.00000000000;1500.00000000000;1520.00000000000;1507.00000000000;1487.00000000000;1503.00000000000;1517.00000000000;1528.00000000000;1549.00000000000;1532.00000000000;1525.00000000000;1557.00000000000;1543.00000000000;1516.00000000000;1518.00000000000;1513.00000000000;1506.00000000000;1532.00000000000;1516.00000000000;1497.00000000000;1520.00000000000;1512.00000000000;1518.00000000000;1499.00000000000;1499.00000000000;1519.00000000000;1511.00000000000;1534.00000000000;1523.00000000000;1520.00000000000;1522.00000000000;1507.00000000000;1516.00000000000;1547.00000000000;1516.00000000000;1500.00000000000;1512.00000000000;1509.00000000000;1540.00000000000;1527.00000000000;1524.00000000000;1517.00000000000
