COMMAND 1 SAMPLE 1
Accel X : 2848.00000000000;2875.00000000000;2856.00000000000;2845.00000000000;2862.00000000000;2837.00000000000;2851.00000000000;2861.00000000000;2853.00000000000;2853.00000000000;2853.00000000000;2825.00000000000;2850.00000000000;2851.00000000000;2846.00000000000;2855.00000000000;2865.00000000000;2886.00000000000;2832.00000000000;2835.00000000000;2848.00000000000;2842.00000000000;2857.00000000000;2842.00000000000;2857.00000000000;2862.00000000000;2845.00000000000;2856.00000000000;2845.00000000000;2831.00000000000;2853.00000000000;2868.00000000000;2866.00000000000;2846.00000000000;2880.00000000000;2879.00000000000;2895.00000000000;2897.00000000000;2936.00000000000;2938.00000000000;2979.00000000000;3066.00000000000;3146.00000000000;3223.00000000000;3297.00000000000;3308.00000000000;3214.00000000000;3289.00000000000;3405.00000000000;3568.00000000000;3415.00000000000;3331.00000000000;3126.00000000000;2900.00000000000;2795.00000000000;2532.00000000000;2230.00000000000;1857.00000000000;1677.00000000000;1421.00000000000;1386.00000000000;1282.00000000000;1264.00000000000;1219.00000000000;1017.00000000000;827.000000000000;697.000000000000;758.000000000000;867.000000000000;904.000000000000;1055.00000000000;1266.00000000000;1370.00000000000;1524.00000000000;1839.00000000000;1980.00000000000;2016.00000000000;2135.00000000000;2203.00000000000;2364.00000000000;2733.00000000000;3096.00000000000;3472.00000000000;3984.00000000000;4075.00000000000;3381.00000000000;3526.00000000000;3818.00000000000;3798.00000000000;3570.00000000000;3313.00000000000;3124.00000000000;3007.00000000000;2923.00000000000;2795.00000000000;2711.00000000000;2644.00000000000;2606.00000000000;2520.00000000000;2469.00000000000;2543.00000000000;2541.00000000000;2485.00000000000;2397.00000000000;2415.00000000000;2563.00000000000;2660.00000000000;2621.00000000000;2549.00000000000;2703.00000000000;2654.00000000000;2888.00000000000;2939.00000000000;3109.00000000000;3246.00000000000;3210.00000000000;3365.00000000000;3404.00000000000;3360.00000000000;3259.00000000000;3105.00000000000;3174.00000000000;3103.00000000000;3052.00000000000;3010.00000000000;2976.00000000000;2949.00000000000;2920.00000000000;2892.00000000000;2826.00000000000;2891.00000000000;2850.00000000000;2883.00000000000;2858.00000000000;2839.00000000000;2828.00000000000;2794.00000000000;2818.00000000000;2808.00000000000;2839.00000000000;2803.00000000000;2847.00000000000;2834.00000000000;2826.00000000000;2834.00000000000;2829.00000000000;2843.00000000000;2868.00000000000;2845.00000000000;2859.00000000000
Accel Y : 2226.00000000000;2238.00000000000;2224.00000000000;2229.00000000000;2218.00000000000;2240.00000000000;2232.00000000000;2220.00000000000;2242.00000000000;2223.00000000000;2218.00000000000;2243.00000000000;2237.00000000000;2243.00000000000;2239.00000000000;2223.00000000000;2223.00000000000;2224.00000000000;2245.00000000000;2237.00000000000;2243.00000000000;2233.00000000000;2245.00000000000;2233.00000000000;2227.00000000000;2227.00000000000;2209.00000000000;2233.00000000000;2236.00000000000;2232.00000000000;2236.00000000000;2242.00000000000;2225.00000000000;2245.00000000000;2221.00000000000;2244.00000000000;2247.00000000000;2250.00000000000;2262.00000000000;2265.00000000000;2252.00000000000;2290.00000000000;2325.00000000000;2347.00000000000;2390.00000000000;2367.00000000000;2343.00000000000;2304.00000000000;2254.00000000000;2195.00000000000;2083.00000000000;2009.00000000000;1926.00000000000;1768.00000000000;1628.00000000000;1557.00000000000;1568.00000000000;1484.00000000000;1442.00000000000;1398.00000000000;1307.00000000000;1291.00000000000;1255.00000000000;1204.00000000000;1196.00000000000;1219.00000000000;1188.00000000000;1264.00000000000;1386.00000000000;1416.00000000000;1496.00000000000;1605.00000000000;1754.00000000000;1838.00000000000;1916.00000000000;2001.00000000000;2083.00000000000;2236.00000000000;2461.00000000000;2752.00000000000;2966.00000000000;2925.00000000000;3140.00000000000;2903.00000000000;2574.00000000000;2207.00000000000;2058.00000000000;2032.00000000000;2061.00000000000;2097.00000000000;2129.00000000000;2045.00000000000;2037.00000000000;2025.00000000000;2039.00000000000;1937.00000000000;1859.00000000000;1919.00000000000;1946.00000000000;1876.00000000000;1753.00000000000;1696.00000000000;1723.00000000000;1834.00000000000;1789.00000000000;1701.00000000000;1669.00000000000;1703.00000000000;1730.00000000000;1676.00000000000;1565.00000000000;1604.00000000000;1632.00000000000;1693.00000000000;1831.00000000000;1816.00000000000;1788.00000000000;1852.00000000000;1865.00000000000;1872.00000000000;1830.00000000000;1927.00000000000;1914.00000000000;1950.00000000000;1987.00000000000;2024.00000000000;2046.00000000000;2058.00000000000;2066.00000000000;2081.00000000000;2096.00000000000;2111.00000000000;2099.00000000000;2110.00000000000;2100.00000000000;2089.00000000000;2075.00000000000;2069.00000000000;2045.00000000000;2033.00000000000;2018.00000000000;1991.00000000000;2008.00000000000;1990.00000000000;2002.00000000000;1985.00000000000;1989.00000000000;1997.00000000000;2008.00000000000;2010.00000000000
Accel Z : 1794.00000000000;1809.00000000000;1824.00000000000;1799.00000000000;1819.00000000000;1823.00000000000;1790.00000000000;1811.00000000000;1813.00000000000;1821.00000000000;1807.00000000000;1806.00000000000;1814.00000000000;1819.00000000000;1822.00000000000;1818.00000000000;1817.00000000000;1815.00000000000;1831.00000000000;1819.00000000000;1819.00000000000;1832.00000000000;1811.00000000000;1805.00000000000;1806.00000000000;1818.00000000000;1828.00000000000;1814.00000000000;1815.00000000000;1823.00000000000;1823.00000000000;1812.00000000000;1813.00000000000;1817.00000000000;1813.00000000000;1815.00000000000;1818.00000000000;1801.00000000000;1789.00000000000;1818.00000000000;1805.00000000000;1826.00000000000;1818.00000000000;1891.00000000000;1936.00000000000;1950.00000000000;1986.00000000000;2009.00000000000;2008.00000000000;2059.00000000000;2052.00000000000;2030.00000000000;1971.00000000000;1943.00000000000;1824.00000000000;1776.00000000000;1811.00000000000;1781.00000000000;1777.00000000000;1830.00000000000;1730.00000000000;1605.00000000000;1643.00000000000;1609.00000000000;1653.00000000000;1707.00000000000;1826.00000000000;1862.00000000000;1859.00000000000;1717.00000000000;1655.00000000000;1641.00000000000;1598.00000000000;1544.00000000000;1523.00000000000;1534.00000000000;1631.00000000000;1711.00000000000;1654.00000000000;1608.00000000000;1469.00000000000;1637.00000000000;1615.00000000000;1648.00000000000;1889.00000000000;1903.00000000000;1985.00000000000;1887.00000000000;1812.00000000000;1736.00000000000;1799.00000000000;1851.00000000000;1862.00000000000;1818.00000000000;1791.00000000000;1774.00000000000;1711.00000000000;1717.00000000000;1729.00000000000;1750.00000000000;1713.00000000000;1715.00000000000;1613.00000000000;1742.00000000000;1799.00000000000;1746.00000000000;1673.00000000000;1699.00000000000;1741.00000000000;1802.00000000000;1809.00000000000;1849.00000000000;1739.00000000000;1845.00000000000;1993.00000000000;1969.00000000000;1854.00000000000;1879.00000000000;1905.00000000000;1952.00000000000;1955.00000000000;1969.00000000000;1910.00000000000;1912.00000000000;1925.00000000000;1934.00000000000;1918.00000000000;1877.00000000000;1863.00000000000;1842.00000000000;1828.00000000000;1809.00000000000;1801.00000000000;1763.00000000000;1772.00000000000;1778.00000000000;1782.00000000000;1765.00000000000;1752.00000000000;1750.00000000000;1775.00000000000;1787.00000000000;1794.00000000000;1786.00000000000;1803.00000000000;1804.00000000000;1796.00000000000;1840.00000000000;1810.00000000000;1815.00000000000
Gyro X : 2848.00000000000;2875.00000000000;2856.00000000000;2845.00000000000;2862.00000000000;2837.00000000000;2851.00000000000;2861.00000000000;2853.00000000000;2853.00000000000;2853.00000000000;2825.00000000000;2850.00000000000;2851.00000000000;2846.00000000000;2855.00000000000;2865.00000000000;2886.00000000000;2832.00000000000;2835.00000000000;2848.00000000000;2842.00000000000;2857.00000000000;2842.00000000000;2857.00000000000;2862.00000000000;2845.00000000000;2856.00000000000;2845.00000000000;2831.00000000000;2853.00000000000;2868.00000000000;2866.00000000000;2846.00000000000;2880.00000000000;2879.00000000000;2895.00000000000;2897.00000000000;2936.00000000000;2938.00000000000;2979.00000000000;3066.00000000000;3146.00000000000;3223.00000000000;3297.00000000000;3308.00000000000;3214.00000000000;3289.00000000000;3405.00000000000;3568.00000000000;3415.00000000000;3331.00000000000;3126.00000000000;2900.00000000000;2795.00000000000;2532.00000000000;2230.00000000000;1857.00000000000;1677.00000000000;1421.00000000000;1386.00000000000;1282.00000000000;1264.00000000000;1219.00000000000;1017.00000000000;827.000000000000;697.000000000000;758.000000000000;867.000000000000;904.000000000000;1055.00000000000;1266.00000000000;1370.00000000000;1524.00000000000;1839.00000000000;1980.00000000000;2016.00000000000;2135.00000000000;2203.00000000000;2364.00000000000;2733.00000000000;3096.00000000000;3472.00000000000;3984.00000000000;4075.00000000000;3381.00000000000;3526.00000000000;3818.00000000000;3798.00000000000;3570.00000000000;3313.00000000000;3124.00000000000;3007.00000000000;2923.00000000000;2795.00000000000;2711.00000000000;2644.00000000000;2606.00000000000;2520.00000000000;2469.00000000000;2543.00000000000;2541.00000000000;2485.00000000000;2397.00000000000;2415.00000000000;2563.00000000000;2660.00000000000;2621.00000000000;2549.00000000000;2703.00000000000;2654.00000000000;2888.00000000000;2939.00000000000;3109.00000000000;3246.00000000000;3210.00000000000;3365.00000000000;3404.00000000000;3360.00000000000;3259.00000000000;3105.00000000000;3174.00000000000;3103.00000000000;3052.00000000000;3010.00000000000;2976.00000000000;2949.00000000000;2920.00000000000;2892.00000000000;2826.00000000000;2891.00000000000;2850.00000000000;2883.00000000000;2858.00000000000;2839.00000000000;2828.00000000000;2794.00000000000;2818.00000000000;2808.00000000000;2839.00000000000;2803.00000000000;2847.00000000000;2834.00000000000;2826.00000000000;2834.00000000000;2829.00000000000;2843.00000000000;2868.00000000000;2845.00000000000;2859.00000000000
Gyro Y : 2226.00000000000;2238.00000000000;2224.00000000000;2229.00000000000;2218.00000000000;2240.00000000000;2232.00000000000;2220.00000000000;2242.00000000000;2223.00000000000;2218.00000000000;2243.00000000000;2237.00000000000;2243.00000000000;2239.00000000000;2223.00000000000;2223.00000000000;2224.00000000000;2245.00000000000;2237.00000000000;2243.00000000000;2233.00000000000;2245.00000000000;2233.00000000000;2227.00000000000;2227.00000000000;2209.00000000000;2233.00000000000;2236.00000000000;2232.00000000000;2236.00000000000;2242.00000000000;2225.00000000000;2245.00000000000;2221.00000000000;2244.00000000000;2247.00000000000;2250.00000000000;2262.00000000000;2265.00000000000;2252.00000000000;2290.00000000000;2325.00000000000;2347.00000000000;2390.00000000000;2367.00000000000;2343.00000000000;2304.00000000000;2254.00000000000;2195.00000000000;2083.00000000000;2009.00000000000;1926.00000000000;1768.00000000000;1628.00000000000;1557.00000000000;1568.00000000000;1484.00000000000;1442.00000000000;1398.00000000000;1307.00000000000;1291.00000000000;1255.00000000000;1204.00000000000;1196.00000000000;1219.00000000000;1188.00000000000;1264.00000000000;1386.00000000000;1416.00000000000;1496.00000000000;1605.00000000000;1754.00000000000;1838.00000000000;1916.00000000000;2001.00000000000;2083.00000000000;2236.00000000000;2461.00000000000;2752.00000000000;2966.00000000000;2925.00000000000;3140.00000000000;2903.00000000000;2574.00000000000;2207.00000000000;2058.00000000000;2032.00000000000;2061.00000000000;2097.00000000000;2129.00000000000;2045.00000000000;2037.00000000000;2025.00000000000;2039.00000000000;1937.00000000000;1859.00000000000;1919.00000000000;1946.00000000000;1876.00000000000;1753.00000000000;1696.00000000000;1723.00000000000;1834.00000000000;1789.00000000000;1701.00000000000;1669.00000000000;1703.00000000000;1730.00000000000;1676.00000000000;1565.00000000000;1604.00000000000;1632.00000000000;1693.00000000000;1831.00000000000;1816.00000000000;1788.00000000000;1852.00000000000;1865.00000000000;1872.00000000000;1830.00000000000;1927.00000000000;1914.00000000000;1950.00000000000;1987.00000000000;2024.00000000000;2046.00000000000;2058.00000000000;2066.00000000000;2081.00000000000;2096.00000000000;2111.00000000000;2099.00000000000;2110.00000000000;2100.00000000000;2089.00000000000;2075.00000000000;2069.00000000000;2045.00000000000;2033.00000000000;2018.00000000000;1991.00000000000;2008.00000000000;1990.00000000000;2002.00000000000;1985.00000000000;1989.00000000000;1997.00000000000;2008.00000000000;2010.00000000000
Gyro Z : 1794.00000000000;1809.00000000000;1824.00000000000;1799.00000000000;1819.00000000000;1823.00000000000;1790.00000000000;1811.00000000000;1813.00000000000;1821.00000000000;1807.00000000000;1806.00000000000;1814.00000000000;1819.00000000000;1822.00000000000;1818.00000000000;1817.00000000000;1815.00000000000;1831.00000000000;1819.00000000000;1819.00000000000;1832.00000000000;1811.00000000000;1805.00000000000;1806.00000000000;1818.00000000000;1828.00000000000;1814.00000000000;1815.00000000000;1823.00000000000;1823.00000000000;1812.00000000000;1813.00000000000;1817.00000000000;1813.00000000000;1815.00000000000;1818.00000000000;1801.00000000000;1789.00000000000;1818.00000000000;1805.00000000000;1826.00000000000;1818.00000000000;1891.00000000000;1936.00000000000;1950.00000000000;1986.00000000000;2009.00000000000;2008.00000000000;2059.00000000000;2052.00000000000;2030.00000000000;1971.00000000000;1943.00000000000;1824.00000000000;1776.00000000000;1811.00000000000;1781.00000000000;1777.00000000000;1830.00000000000;1730.00000000000;1605.00000000000;1643.00000000000;1609.00000000000;1653.00000000000;1707.00000000000;1826.00000000000;1862.00000000000;1859.00000000000;1717.00000000000;1655.00000000000;1641.00000000000;1598.00000000000;1544.00000000000;1523.00000000000;1534.00000000000;1631.00000000000;1711.00000000000;1654.00000000000;1608.00000000000;1469.00000000000;1637.00000000000;1615.00000000000;1648.00000000000;1889.00000000000;1903.00000000000;1985.00000000000;1887.00000000000;1812.00000000000;1736.00000000000;1799.00000000000;1851.00000000000;1862.00000000000;1818.00000000000;1791.00000000000;1774.00000000000;1711.00000000000;1717.00000000000;1729.00000000000;1750.00000000000;1713.00000000000;1715.00000000000;1613.00000000000;1742.00000000000;1799.00000000000;1746.00000000000;1673.00000000000;1699.00000000000;1741.00000000000;1802.00000000000;1809.00000000000;1849.00000000000;1739.00000000000;1845.00000000000;1993.00000000000;1969.00000000000;1854.00000000000;1879.00000000000;1905.00000000000;1952.00000000000;1955.00000000000;1969.00000000000;1910.00000000000;1912.00000000000;1925.00000000000;1934.00000000000;1918.00000000000;1877.00000000000;1863.00000000000;1842.00000000000;1828.00000000000;1809.00000000000;1801.00000000000;1763.00000000000;1772.00000000000;1778.00000000000;1782.00000000000;1765.00000000000;1752.00000000000;1750.00000000000;1775.00000000000;1787.00000000000;1794.00000000000;1786.00000000000;1803.00000000000;1804.00000000000;1796.00000000000;1840.00000000000;1810.00000000000;1815.00000000000
