COMMAND 4 SAMPLE 1
Accel X : 2870.00000000000;2835.00000000000;2844.00000000000;2851.00000000000;2871.00000000000;2874.00000000000;2863.00000000000;2866.00000000000;2877.00000000000;2894.00000000000;2886.00000000000;2902.00000000000;2869.00000000000;2843.00000000000;2867.00000000000;2859.00000000000;2856.00000000000;2861.00000000000;2892.00000000000;2876.00000000000;2881.00000000000;2901.00000000000;2904.00000000000;2910.00000000000;2915.00000000000;2895.00000000000;2912.00000000000;2926.00000000000;2911.00000000000;2877.00000000000;2863.00000000000;2831.00000000000;2820.00000000000;2818.00000000000;2799.00000000000;2781.00000000000;2743.00000000000;2748.00000000000;2692.00000000000;2684.00000000000;2685.00000000000;2669.00000000000;2604.00000000000;2623.00000000000;2631.00000000000;2626.00000000000;2546.00000000000;2449.00000000000;2366.00000000000;2182.00000000000;2145.00000000000;1897.00000000000;2123.00000000000;2247.00000000000;2078.00000000000;2144.00000000000;2082.00000000000;2137.00000000000;1971.00000000000;1882.00000000000;1807.00000000000;1814.00000000000;1844.00000000000;1929.00000000000;1990.00000000000;1940.00000000000;1939.00000000000;1799.00000000000;1826.00000000000;1770.00000000000;1695.00000000000;1690.00000000000;1706.00000000000;1846.00000000000;1893.00000000000;1896.00000000000;1867.00000000000;1869.00000000000;1953.00000000000;2032.00000000000;1942.00000000000;1955.00000000000;2087.00000000000;2143.00000000000;2064.00000000000;2122.00000000000;2170.00000000000;1998.00000000000;2352.00000000000;2559.00000000000;2760.00000000000;2791.00000000000;2537.00000000000;2370.00000000000;2423.00000000000;2570.00000000000;2532.00000000000;2519.00000000000;2402.00000000000;2414.00000000000;2390.00000000000;2448.00000000000;2521.00000000000;2669.00000000000;2762.00000000000;2804.00000000000;2785.00000000000;2844.00000000000;2836.00000000000;2833.00000000000;2843.00000000000;2817.00000000000;2838.00000000000;2858.00000000000;2913.00000000000;2884.00000000000;2882.00000000000;2843.00000000000;2842.00000000000;2821.00000000000;2835.00000000000;2820.00000000000;2855.00000000000;2846.00000000000;2823.00000000000;2822.00000000000;2820.00000000000;2876.00000000000;2867.00000000000;2888.00000000000;2895.00000000000;2856.00000000000;2840.00000000000;2825.00000000000;2833.00000000000;2841.00000000000;2846.00000000000;2833.00000000000;2838.00000000000;2838.00000000000;2839.00000000000;2852.00000000000;2868.00000000000;2858.00000000000;2864.00000000000;2857.00000000000;2874.00000000000;2857.00000000000;2857.00000000000;2868.00000000000
Accel Y : 1881.00000000000;1890.00000000000;1881.00000000000;1883.00000000000;1869.00000000000;1879.00000000000;1882.00000000000;1891.00000000000;1917.00000000000;1914.00000000000;1900.00000000000;1910.00000000000;1910.00000000000;1906.00000000000;1923.00000000000;1905.00000000000;1891.00000000000;1897.00000000000;1899.00000000000;1899.00000000000;1870.00000000000;1867.00000000000;1881.00000000000;1880.00000000000;1884.00000000000;1883.00000000000;1875.00000000000;1885.00000000000;1891.00000000000;1873.00000000000;1853.00000000000;1877.00000000000;1846.00000000000;1844.00000000000;1836.00000000000;1841.00000000000;1818.00000000000;1829.00000000000;1823.00000000000;1842.00000000000;1851.00000000000;1850.00000000000;1849.00000000000;1858.00000000000;1878.00000000000;1880.00000000000;1883.00000000000;1912.00000000000;1987.00000000000;2068.00000000000;2224.00000000000;2344.00000000000;2698.00000000000;3025.00000000000;3289.00000000000;3614.00000000000;3745.00000000000;3775.00000000000;3720.00000000000;3603.00000000000;3563.00000000000;3541.00000000000;3488.00000000000;3500.00000000000;3463.00000000000;3441.00000000000;3442.00000000000;3319.00000000000;3199.00000000000;3137.00000000000;3120.00000000000;3101.00000000000;3122.00000000000;3141.00000000000;3152.00000000000;3175.00000000000;3196.00000000000;3292.00000000000;3259.00000000000;3267.00000000000;3361.00000000000;3359.00000000000;3365.00000000000;3402.00000000000;3413.00000000000;3481.00000000000;3454.00000000000;3342.00000000000;3040.00000000000;2888.00000000000;2803.00000000000;2691.00000000000;2590.00000000000;2402.00000000000;2271.00000000000;2163.00000000000;2126.00000000000;2086.00000000000;2067.00000000000;1981.00000000000;1932.00000000000;1885.00000000000;1895.00000000000;1837.00000000000;1839.00000000000;1809.00000000000;1823.00000000000;1805.00000000000;1808.00000000000;1788.00000000000;1787.00000000000;1799.00000000000;1803.00000000000;1815.00000000000;1810.00000000000;1808.00000000000;1825.00000000000;1826.00000000000;1810.00000000000;1828.00000000000;1844.00000000000;1827.00000000000;1824.00000000000;1817.00000000000;1824.00000000000;1819.00000000000;1822.00000000000;1800.00000000000;1850.00000000000;1831.00000000000;1828.00000000000;1818.00000000000;1839.00000000000;1841.00000000000;1827.00000000000;1847.00000000000;1843.00000000000;1824.00000000000;1839.00000000000;1848.00000000000;1839.00000000000;1847.00000000000;1852.00000000000;1851.00000000000;1839.00000000000;1851.00000000000;1847.00000000000;1849.00000000000;1861.00000000000;1855.00000000000
Accel Z : 1700.00000000000;1686.00000000000;1690.00000000000;1687.00000000000;1682.00000000000;1688.00000000000;1699.00000000000;1696.00000000000;1710.00000000000;1722.00000000000;1712.00000000000;1727.00000000000;1727.00000000000;1738.00000000000;1717.00000000000;1754.00000000000;1722.00000000000;1728.00000000000;1744.00000000000;1727.00000000000;1722.00000000000;1718.00000000000;1691.00000000000;1716.00000000000;1681.00000000000;1707.00000000000;1692.00000000000;1707.00000000000;1705.00000000000;1712.00000000000;1718.00000000000;1727.00000000000;1729.00000000000;1702.00000000000;1700.00000000000;1715.00000000000;1736.00000000000;1729.00000000000;1752.00000000000;1748.00000000000;1759.00000000000;1752.00000000000;1775.00000000000;1793.00000000000;1799.00000000000;1859.00000000000;1857.00000000000;1839.00000000000;1835.00000000000;1769.00000000000;1692.00000000000;1784.00000000000;1903.00000000000;1795.00000000000;1783.00000000000;1767.00000000000;1745.00000000000;1757.00000000000;1660.00000000000;1685.00000000000;1712.00000000000;1834.00000000000;1931.00000000000;2127.00000000000;2233.00000000000;2323.00000000000;2357.00000000000;2301.00000000000;2346.00000000000;2397.00000000000;2363.00000000000;2363.00000000000;2273.00000000000;2196.00000000000;2122.00000000000;2111.00000000000;2060.00000000000;1990.00000000000;1924.00000000000;1890.00000000000;1945.00000000000;1820.00000000000;1812.00000000000;1846.00000000000;1885.00000000000;1966.00000000000;1932.00000000000;1830.00000000000;1795.00000000000;1789.00000000000;1853.00000000000;2007.00000000000;1975.00000000000;1829.00000000000;1699.00000000000;1734.00000000000;1820.00000000000;1822.00000000000;1821.00000000000;1803.00000000000;1737.00000000000;1729.00000000000;1757.00000000000;1773.00000000000;1781.00000000000;1794.00000000000;1807.00000000000;1785.00000000000;1810.00000000000;1791.00000000000;1814.00000000000;1825.00000000000;1815.00000000000;1811.00000000000;1821.00000000000;1822.00000000000;1818.00000000000;1812.00000000000;1797.00000000000;1794.00000000000;1788.00000000000;1811.00000000000;1796.00000000000;1794.00000000000;1797.00000000000;1787.00000000000;1803.00000000000;1806.00000000000;1817.00000000000;1807.00000000000;1794.00000000000;1817.00000000000;1807.00000000000;1822.00000000000;1828.00000000000;1828.00000000000;1831.00000000000;1805.00000000000;1785.00000000000;1834.00000000000;1805.00000000000;1812.00000000000;1809.00000000000;1817.00000000000;1821.00000000000;1808.00000000000;1819.00000000000;1835.00000000000;1800.00000000000;1811.00000000000
Gyro X : 2870.00000000000;2835.00000000000;2844.00000000000;2851.00000000000;2871.00000000000;2874.00000000000;2863.00000000000;2866.00000000000;2877.00000000000;2894.00000000000;2886.00000000000;2902.00000000000;2869.00000000000;2843.00000000000;2867.00000000000;2859.00000000000;2856.00000000000;2861.00000000000;2892.00000000000;2876.00000000000;2881.00000000000;2901.00000000000;2904.00000000000;2910.00000000000;2915.00000000000;2895.00000000000;2912.00000000000;2926.00000000000;2911.00000000000;2877.00000000000;2863.00000000000;2831.00000000000;2820.00000000000;2818.00000000000;2799.00000000000;2781.00000000000;2743.00000000000;2748.00000000000;2692.00000000000;2684.00000000000;2685.00000000000;2669.00000000000;2604.00000000000;2623.00000000000;2631.00000000000;2626.00000000000;2546.00000000000;2449.00000000000;2366.00000000000;2182.00000000000;2145.00000000000;1897.00000000000;2123.00000000000;2247.00000000000;2078.00000000000;2144.00000000000;2082.00000000000;2137.00000000000;1971.00000000000;1882.00000000000;1807.00000000000;1814.00000000000;1844.00000000000;1929.00000000000;1990.00000000000;1940.00000000000;1939.00000000000;1799.00000000000;1826.00000000000;1770.00000000000;1695.00000000000;1690.00000000000;1706.00000000000;1846.00000000000;1893.00000000000;1896.00000000000;1867.00000000000;1869.00000000000;1953.00000000000;2032.00000000000;1942.00000000000;1955.00000000000;2087.00000000000;2143.00000000000;2064.00000000000;2122.00000000000;2170.00000000000;1998.00000000000;2352.00000000000;2559.00000000000;2760.00000000000;2791.00000000000;2537.00000000000;2370.00000000000;2423.00000000000;2570.00000000000;2532.00000000000;2519.00000000000;2402.00000000000;2414.00000000000;2390.00000000000;2448.00000000000;2521.00000000000;2669.00000000000;2762.00000000000;2804.00000000000;2785.00000000000;2844.00000000000;2836.00000000000;2833.00000000000;2843.00000000000;2817.00000000000;2838.00000000000;2858.00000000000;2913.00000000000;2884.00000000000;2882.00000000000;2843.00000000000;2842.00000000000;2821.00000000000;2835.00000000000;2820.00000000000;2855.00000000000;2846.00000000000;2823.00000000000;2822.00000000000;2820.00000000000;2876.00000000000;2867.00000000000;2888.00000000000;2895.00000000000;2856.00000000000;2840.00000000000;2825.00000000000;2833.00000000000;2841.00000000000;2846.00000000000;2833.00000000000;2838.00000000000;2838.00000000000;2839.00000000000;2852.00000000000;2868.00000000000;2858.00000000000;2864.00000000000;2857.00000000000;2874.00000000000;2857.00000000000;2857.00000000000;2868.00000000000
Gyro Y : 1881.00000000000;1890.00000000000;1881.00000000000;1883.00000000000;1869.00000000000;1879.00000000000;1882.00000000000;1891.00000000000;1917.00000000000;1914.00000000000;1900.00000000000;1910.00000000000;1910.00000000000;1906.00000000000;1923.00000000000;1905.00000000000;1891.00000000000;1897.00000000000;1899.00000000000;1899.00000000000;1870.00000000000;1867.00000000000;1881.00000000000;1880.00000000000;1884.00000000000;1883.00000000000;1875.00000000000;1885.00000000000;1891.00000000000;1873.00000000000;1853.00000000000;1877.00000000000;1846.00000000000;1844.00000000000;1836.00000000000;1841.00000000000;1818.00000000000;1829.00000000000;1823.00000000000;1842.00000000000;1851.00000000000;1850.00000000000;1849.00000000000;1858.00000000000;1878.00000000000;1880.00000000000;1883.00000000000;1912.00000000000;1987.00000000000;2068.00000000000;2224.00000000000;2344.00000000000;2698.00000000000;3025.00000000000;3289.00000000000;3614.00000000000;3745.00000000000;3775.00000000000;3720.00000000000;3603.00000000000;3563.00000000000;3541.00000000000;3488.00000000000;3500.00000000000;3463.00000000000;3441.00000000000;3442.00000000000;3319.00000000000;3199.00000000000;3137.00000000000;3120.00000000000;3101.00000000000;3122.00000000000;3141.00000000000;3152.00000000000;3175.00000000000;3196.00000000000;3292.00000000000;3259.00000000000;3267.00000000000;3361.00000000000;3359.00000000000;3365.00000000000;3402.00000000000;3413.00000000000;3481.00000000000;3454.00000000000;3342.00000000000;3040.00000000000;2888.00000000000;2803.00000000000;2691.00000000000;2590.00000000000;2402.00000000000;2271.00000000000;2163.00000000000;2126.00000000000;2086.00000000000;2067.00000000000;1981.00000000000;1932.00000000000;1885.00000000000;1895.00000000000;1837.00000000000;1839.00000000000;1809.00000000000;1823.00000000000;1805.00000000000;1808.00000000000;1788.00000000000;1787.00000000000;1799.00000000000;1803.00000000000;1815.00000000000;1810.00000000000;1808.00000000000;1825.00000000000;1826.00000000000;1810.00000000000;1828.00000000000;1844.00000000000;1827.00000000000;1824.00000000000;1817.00000000000;1824.00000000000;1819.00000000000;1822.00000000000;1800.00000000000;1850.00000000000;1831.00000000000;1828.00000000000;1818.00000000000;1839.00000000000;1841.00000000000;1827.00000000000;1847.00000000000;1843.00000000000;1824.00000000000;1839.00000000000;1848.00000000000;1839.00000000000;1847.00000000000;1852.00000000000;1851.00000000000;1839.00000000000;1851.00000000000;1847.00000000000;1849.00000000000;1861.00000000000;1855.00000000000
Gyro Z : 1700.00000000000;1686.00000000000;1690.00000000000;1687.00000000000;1682.00000000000;1688.00000000000;1699.00000000000;1696.00000000000;1710.00000000000;1722.00000000000;1712.00000000000;1727.00000000000;1727.00000000000;1738.00000000000;1717.00000000000;1754.00000000000;1722.00000000000;1728.00000000000;1744.00000000000;1727.00000000000;1722.00000000000;1718.00000000000;1691.00000000000;1716.00000000000;1681.00000000000;1707.00000000000;1692.00000000000;1707.00000000000;1705.00000000000;1712.00000000000;1718.00000000000;1727.00000000000;1729.00000000000;1702.00000000000;1700.00000000000;1715.00000000000;1736.00000000000;1729.00000000000;1752.00000000000;1748.00000000000;1759.00000000000;1752.00000000000;1775.00000000000;1793.00000000000;1799.00000000000;1859.00000000000;1857.00000000000;1839.00000000000;1835.00000000000;1769.00000000000;1692.00000000000;1784.00000000000;1903.00000000000;1795.00000000000;1783.00000000000;1767.00000000000;1745.00000000000;1757.00000000000;1660.00000000000;1685.00000000000;1712.00000000000;1834.00000000000;1931.00000000000;2127.00000000000;2233.00000000000;2323.00000000000;2357.00000000000;2301.00000000000;2346.00000000000;2397.00000000000;2363.00000000000;2363.00000000000;2273.00000000000;2196.00000000000;2122.00000000000;2111.00000000000;2060.00000000000;1990.00000000000;1924.00000000000;1890.00000000000;1945.00000000000;1820.00000000000;1812.00000000000;1846.00000000000;1885.00000000000;1966.00000000000;1932.00000000000;1830.00000000000;1795.00000000000;1789.00000000000;1853.00000000000;2007.00000000000;1975.00000000000;1829.00000000000;1699.00000000000;1734.00000000000;1820.00000000000;1822.00000000000;1821.00000000000;1803.00000000000;1737.00000000000;1729.00000000000;1757.00000000000;1773.00000000000;1781.00000000000;1794.00000000000;1807.00000000000;1785.00000000000;1810.00000000000;1791.00000000000;1814.00000000000;1825.00000000000;1815.00000000000;1811.00000000000;1821.00000000000;1822.00000000000;1818.00000000000;1812.00000000000;1797.00000000000;1794.00000000000;1788.00000000000;1811.00000000000;1796.00000000000;1794.00000000000;1797.00000000000;1787.00000000000;1803.00000000000;1806.00000000000;1817.00000000000;1807.00000000000;1794.00000000000;1817.00000000000;1807.00000000000;1822.00000000000;1828.00000000000;1828.00000000000;1831.00000000000;1805.00000000000;1785.00000000000;1834.00000000000;1805.00000000000;1812.00000000000;1809.00000000000;1817.00000000000;1821.00000000000;1808.00000000000;1819.00000000000;1835.00000000000;1800.00000000000;1811.00000000000
