COMMAND 2 SAMPLE 1
Accel X : 2835.00000000000;2822.00000000000;2822.00000000000;2840.00000000000;2830.00000000000;2831.00000000000;2854.00000000000;2835.00000000000;2833.00000000000;2867.00000000000;2850.00000000000;2850.00000000000;2851.00000000000;2836.00000000000;2830.00000000000;2867.00000000000;2837.00000000000;2852.00000000000;2859.00000000000;2831.00000000000;2833.00000000000;2832.00000000000;2832.00000000000;2827.00000000000;2837.00000000000;2810.00000000000;2819.00000000000;2823.00000000000;2807.00000000000;2871.00000000000;2883.00000000000;2869.00000000000;2868.00000000000;2860.00000000000;2866.00000000000;2873.00000000000;2922.00000000000;2905.00000000000;2878.00000000000;2846.00000000000;2812.00000000000;2873.00000000000;2885.00000000000;2879.00000000000;2816.00000000000;2827.00000000000;2902.00000000000;2881.00000000000;2896.00000000000;2812.00000000000;2802.00000000000;2868.00000000000;2838.00000000000;2869.00000000000;2886.00000000000;2772.00000000000;2792.00000000000;2755.00000000000;2831.00000000000;2756.00000000000;2798.00000000000;2761.00000000000;2765.00000000000;2810.00000000000;2807.00000000000;2815.00000000000;2872.00000000000;2806.00000000000;2837.00000000000;2878.00000000000;2900.00000000000;2851.00000000000;2819.00000000000;2854.00000000000;2823.00000000000;2879.00000000000;2895.00000000000;2876.00000000000;2846.00000000000;2900.00000000000;2967.00000000000;2984.00000000000;2901.00000000000;2819.00000000000;2825.00000000000;2873.00000000000;2895.00000000000;2769.00000000000;2775.00000000000;2818.00000000000;2860.00000000000;2845.00000000000;2838.00000000000;2766.00000000000;2768.00000000000;2842.00000000000;2879.00000000000;2959.00000000000;2799.00000000000;2794.00000000000;2762.00000000000;2926.00000000000;2935.00000000000;2856.00000000000;2731.00000000000;2684.00000000000;2832.00000000000;2912.00000000000;2934.00000000000;2907.00000000000;2917.00000000000;2914.00000000000;2899.00000000000;2894.00000000000;2928.00000000000;3019.00000000000;3071.00000000000;3031.00000000000;2941.00000000000;2866.00000000000;2861.00000000000;2975.00000000000;2973.00000000000;2949.00000000000;2885.00000000000;2860.00000000000;2883.00000000000;2892.00000000000;2889.00000000000;2876.00000000000;2853.00000000000;2841.00000000000;2850.00000000000;2859.00000000000;2835.00000000000;2883.00000000000;2878.00000000000;2826.00000000000;2870.00000000000;2880.00000000000;2903.00000000000;2878.00000000000;2848.00000000000;2897.00000000000;2894.00000000000;2891.00000000000;2862.00000000000;2842.00000000000;2846.00000000000;2820.00000000000
Accel Y : 2089.00000000000;2082.00000000000;2084.00000000000;2080.00000000000;2090.00000000000;2096.00000000000;2092.00000000000;2079.00000000000;2084.00000000000;2092.00000000000;2074.00000000000;2093.00000000000;2072.00000000000;2085.00000000000;2092.00000000000;2078.00000000000;2091.00000000000;2081.00000000000;2099.00000000000;2088.00000000000;2108.00000000000;2111.00000000000;2109.00000000000;2086.00000000000;2122.00000000000;2135.00000000000;2111.00000000000;2108.00000000000;2106.00000000000;2109.00000000000;2128.00000000000;2095.00000000000;2134.00000000000;2117.00000000000;2123.00000000000;2103.00000000000;2103.00000000000;2084.00000000000;2133.00000000000;2135.00000000000;2171.00000000000;2213.00000000000;2225.00000000000;2213.00000000000;2221.00000000000;2210.00000000000;2275.00000000000;2250.00000000000;2253.00000000000;2265.00000000000;2258.00000000000;2245.00000000000;2215.00000000000;2199.00000000000;2187.00000000000;2137.00000000000;2177.00000000000;2195.00000000000;2186.00000000000;2187.00000000000;2181.00000000000;2159.00000000000;2114.00000000000;2128.00000000000;2053.00000000000;2076.00000000000;2018.00000000000;2027.00000000000;2000.00000000000;1969.00000000000;1917.00000000000;1891.00000000000;1835.00000000000;1843.00000000000;1827.00000000000;1889.00000000000;1878.00000000000;1899.00000000000;1889.00000000000;1927.00000000000;1941.00000000000;1938.00000000000;2005.00000000000;2005.00000000000;2045.00000000000;2072.00000000000;2070.00000000000;2097.00000000000;2137.00000000000;2167.00000000000;2197.00000000000;2195.00000000000;2255.00000000000;2233.00000000000;2246.00000000000;2316.00000000000;2323.00000000000;2392.00000000000;2371.00000000000;2352.00000000000;2391.00000000000;2461.00000000000;2416.00000000000;2301.00000000000;2160.00000000000;2220.00000000000;2284.00000000000;2210.00000000000;2148.00000000000;2137.00000000000;2103.00000000000;2106.00000000000;2062.00000000000;2006.00000000000;1995.00000000000;1966.00000000000;2007.00000000000;1998.00000000000;2028.00000000000;2029.00000000000;2011.00000000000;2011.00000000000;2026.00000000000;2037.00000000000;2044.00000000000;2018.00000000000;2027.00000000000;2011.00000000000;2021.00000000000;2018.00000000000;2003.00000000000;1988.00000000000;1988.00000000000;1981.00000000000;2012.00000000000;2003.00000000000;2003.00000000000;2027.00000000000;2018.00000000000;2014.00000000000;2002.00000000000;2003.00000000000;2029.00000000000;2016.00000000000;2037.00000000000;2067.00000000000;2046.00000000000;2024.00000000000;2054.00000000000;2039.00000000000
Accel Z : 1952.00000000000;1957.00000000000;1944.00000000000;1952.00000000000;1955.00000000000;1944.00000000000;1929.00000000000;1939.00000000000;1934.00000000000;1951.00000000000;1958.00000000000;1961.00000000000;1931.00000000000;1949.00000000000;1949.00000000000;1962.00000000000;1983.00000000000;1969.00000000000;1945.00000000000;1956.00000000000;1994.00000000000;1990.00000000000;1995.00000000000;2014.00000000000;2026.00000000000;2059.00000000000;2093.00000000000;2111.00000000000;2110.00000000000;2130.00000000000;2156.00000000000;2166.00000000000;2208.00000000000;2203.00000000000;2190.00000000000;2235.00000000000;2245.00000000000;2261.00000000000;2292.00000000000;2289.00000000000;2353.00000000000;2346.00000000000;2338.00000000000;2319.00000000000;2248.00000000000;2208.00000000000;2182.00000000000;2129.00000000000;2096.00000000000;1943.00000000000;1918.00000000000;1926.00000000000;1917.00000000000;1839.00000000000;1839.00000000000;1707.00000000000;1769.00000000000;1736.00000000000;1679.00000000000;1610.00000000000;1577.00000000000;1564.00000000000;1540.00000000000;1478.00000000000;1395.00000000000;1320.00000000000;1273.00000000000;1243.00000000000;1172.00000000000;1157.00000000000;1166.00000000000;1094.00000000000;1123.00000000000;1122.00000000000;1124.00000000000;1158.00000000000;1187.00000000000;1207.00000000000;1216.00000000000;1261.00000000000;1286.00000000000;1301.00000000000;1314.00000000000;1332.00000000000;1360.00000000000;1440.00000000000;1513.00000000000;1452.00000000000;1475.00000000000;1550.00000000000;1619.00000000000;1630.00000000000;1689.00000000000;1681.00000000000;1712.00000000000;1845.00000000000;1886.00000000000;1938.00000000000;1892.00000000000;1873.00000000000;1932.00000000000;2127.00000000000;2147.00000000000;2115.00000000000;1983.00000000000;2107.00000000000;2244.00000000000;2192.00000000000;2097.00000000000;2199.00000000000;2220.00000000000;2202.00000000000;2169.00000000000;2136.00000000000;2112.00000000000;2136.00000000000;2109.00000000000;2066.00000000000;2031.00000000000;1959.00000000000;1949.00000000000;1907.00000000000;1901.00000000000;1851.00000000000;1834.00000000000;1817.00000000000;1794.00000000000;1783.00000000000;1778.00000000000;1790.00000000000;1756.00000000000;1746.00000000000;1775.00000000000;1743.00000000000;1750.00000000000;1761.00000000000;1776.00000000000;1775.00000000000;1768.00000000000;1765.00000000000;1797.00000000000;1812.00000000000;1787.00000000000;1793.00000000000;1807.00000000000;1801.00000000000;1771.00000000000;1776.00000000000;1810.00000000000;1799.00000000000
Gyro X : 2835.00000000000;2822.00000000000;2822.00000000000;2840.00000000000;2830.00000000000;2831.00000000000;2854.00000000000;2835.00000000000;2833.00000000000;2867.00000000000;2850.00000000000;2850.00000000000;2851.00000000000;2836.00000000000;2830.00000000000;2867.00000000000;2837.00000000000;2852.00000000000;2859.00000000000;2831.00000000000;2833.00000000000;2832.00000000000;2832.00000000000;2827.00000000000;2837.00000000000;2810.00000000000;2819.00000000000;2823.00000000000;2807.00000000000;2871.00000000000;2883.00000000000;2869.00000000000;2868.00000000000;2860.00000000000;2866.00000000000;2873.00000000000;2922.00000000000;2905.00000000000;2878.00000000000;2846.00000000000;2812.00000000000;2873.00000000000;2885.00000000000;2879.00000000000;2816.00000000000;2827.00000000000;2902.00000000000;2881.00000000000;2896.00000000000;2812.00000000000;2802.00000000000;2868.00000000000;2838.00000000000;2869.00000000000;2886.00000000000;2772.00000000000;2792.00000000000;2755.00000000000;2831.00000000000;2756.00000000000;2798.00000000000;2761.00000000000;2765.00000000000;2810.00000000000;2807.00000000000;2815.00000000000;2872.00000000000;2806.00000000000;2837.00000000000;2878.00000000000;2900.00000000000;2851.00000000000;2819.00000000000;2854.00000000000;2823.00000000000;2879.00000000000;2895.00000000000;2876.00000000000;2846.00000000000;2900.00000000000;2967.00000000000;2984.00000000000;2901.00000000000;2819.00000000000;2825.00000000000;2873.00000000000;2895.00000000000;2769.00000000000;2775.00000000000;2818.00000000000;2860.00000000000;2845.00000000000;2838.00000000000;2766.00000000000;2768.00000000000;2842.00000000000;2879.00000000000;2959.00000000000;2799.00000000000;2794.00000000000;2762.00000000000;2926.00000000000;2935.00000000000;2856.00000000000;2731.00000000000;2684.00000000000;2832.00000000000;2912.00000000000;2934.00000000000;2907.00000000000;2917.00000000000;2914.00000000000;2899.00000000000;2894.00000000000;2928.00000000000;3019.00000000000;3071.00000000000;3031.00000000000;2941.00000000000;2866.00000000000;2861.00000000000;2975.00000000000;2973.00000000000;2949.00000000000;2885.00000000000;2860.00000000000;2883.00000000000;2892.00000000000;2889.00000000000;2876.00000000000;2853.00000000000;2841.00000000000;2850.00000000000;2859.00000000000;2835.00000000000;2883.00000000000;2878.00000000000;2826.00000000000;2870.00000000000;2880.00000000000;2903.00000000000;2878.00000000000;2848.00000000000;2897.00000000000;2894.00000000000;2891.00000000000;2862.00000000000;2842.00000000000;2846.00000000000;2820.00000000000
Gyro Y : 2089.00000000000;2082.00000000000;2084.00000000000;2080.00000000000;2090.00000000000;2096.00000000000;2092.00000000000;2079.00000000000;2084.00000000000;2092.00000000000;2074.00000000000;2093.00000000000;2072.00000000000;2085.00000000000;2092.00000000000;2078.00000000000;2091.00000000000;2081.00000000000;2099.00000000000;2088.00000000000;2108.00000000000;2111.00000000000;2109.00000000000;2086.00000000000;2122.00000000000;2135.00000000000;2111.00000000000;2108.00000000000;2106.00000000000;2109.00000000000;2128.00000000000;2095.00000000000;2134.00000000000;2117.00000000000;2123.00000000000;2103.00000000000;2103.00000000000;2084.00000000000;2133.00000000000;2135.00000000000;2171.00000000000;2213.00000000000;2225.00000000000;2213.00000000000;2221.00000000000;2210.00000000000;2275.00000000000;2250.00000000000;2253.00000000000;2265.00000000000;2258.00000000000;2245.00000000000;2215.00000000000;2199.00000000000;2187.00000000000;2137.00000000000;2177.00000000000;2195.00000000000;2186.00000000000;2187.00000000000;2181.00000000000;2159.00000000000;2114.00000000000;2128.00000000000;2053.00000000000;2076.00000000000;2018.00000000000;2027.00000000000;2000.00000000000;1969.00000000000;1917.00000000000;1891.00000000000;1835.00000000000;1843.00000000000;1827.00000000000;1889.00000000000;1878.00000000000;1899.00000000000;1889.00000000000;1927.00000000000;1941.00000000000;1938.00000000000;2005.00000000000;2005.00000000000;2045.00000000000;2072.00000000000;2070.00000000000;2097.00000000000;2137.00000000000;2167.00000000000;2197.00000000000;2195.00000000000;2255.00000000000;2233.00000000000;2246.00000000000;2316.00000000000;2323.00000000000;2392.00000000000;2371.00000000000;2352.00000000000;2391.00000000000;2461.00000000000;2416.00000000000;2301.00000000000;2160.00000000000;2220.00000000000;2284.00000000000;2210.00000000000;2148.00000000000;2137.00000000000;2103.00000000000;2106.00000000000;2062.00000000000;2006.00000000000;1995.00000000000;1966.00000000000;2007.00000000000;1998.00000000000;2028.00000000000;2029.00000000000;2011.00000000000;2011.00000000000;2026.00000000000;2037.00000000000;2044.00000000000;2018.00000000000;2027.00000000000;2011.00000000000;2021.00000000000;2018.00000000000;2003.00000000000;1988.00000000000;1988.00000000000;1981.00000000000;2012.00000000000;2003.00000000000;2003.00000000000;2027.00000000000;2018.00000000000;2014.00000000000;2002.00000000000;2003.00000000000;2029.00000000000;2016.00000000000;2037.00000000000;2067.00000000000;2046.00000000000;2024.00000000000;2054.00000000000;2039.00000000000
Gyro Z : 1952.00000000000;1957.00000000000;1944.00000000000;1952.00000000000;1955.00000000000;1944.00000000000;1929.00000000000;1939.00000000000;1934.00000000000;1951.00000000000;1958.00000000000;1961.00000000000;1931.00000000000;1949.00000000000;1949.00000000000;1962.00000000000;1983.00000000000;1969.00000000000;1945.00000000000;1956.00000000000;1994.00000000000;1990.00000000000;1995.00000000000;2014.00000000000;2026.00000000000;2059.00000000000;2093.00000000000;2111.00000000000;2110.00000000000;2130.00000000000;2156.00000000000;2166.00000000000;2208.00000000000;2203.00000000000;2190.00000000000;2235.00000000000;2245.00000000000;2261.00000000000;2292.00000000000;2289.00000000000;2353.00000000000;2346.00000000000;2338.00000000000;2319.00000000000;2248.00000000000;2208.00000000000;2182.00000000000;2129.00000000000;2096.00000000000;1943.00000000000;1918.00000000000;1926.00000000000;1917.00000000000;1839.00000000000;1839.00000000000;1707.00000000000;1769.00000000000;1736.00000000000;1679.00000000000;1610.00000000000;1577.00000000000;1564.00000000000;1540.00000000000;1478.00000000000;1395.00000000000;1320.00000000000;1273.00000000000;1243.00000000000;1172.00000000000;1157.00000000000;1166.00000000000;1094.00000000000;1123.00000000000;1122.00000000000;1124.00000000000;1158.00000000000;1187.00000000000;1207.00000000000;1216.00000000000;1261.00000000000;1286.00000000000;1301.00000000000;1314.00000000000;1332.00000000000;1360.00000000000;1440.00000000000;1513.00000000000;1452.00000000000;1475.00000000000;1550.00000000000;1619.00000000000;1630.00000000000;1689.00000000000;1681.00000000000;1712.00000000000;1845.00000000000;1886.00000000000;1938.00000000000;1892.00000000000;1873.00000000000;1932.00000000000;2127.00000000000;2147.00000000000;2115.00000000000;1983.00000000000;2107.00000000000;2244.00000000000;2192.00000000000;2097.00000000000;2199.00000000000;2220.00000000000;2202.00000000000;2169.00000000000;2136.00000000000;2112.00000000000;2136.00000000000;2109.00000000000;2066.00000000000;2031.00000000000;1959.00000000000;1949.00000000000;1907.00000000000;1901.00000000000;1851.00000000000;1834.00000000000;1817.00000000000;1794.00000000000;1783.00000000000;1778.00000000000;1790.00000000000;1756.00000000000;1746.00000000000;1775.00000000000;1743.00000000000;1750.00000000000;1761.00000000000;1776.00000000000;1775.00000000000;1768.00000000000;1765.00000000000;1797.00000000000;1812.00000000000;1787.00000000000;1793.00000000000;1807.00000000000;1801.00000000000;1771.00000000000;1776.00000000000;1810.00000000000;1799.00000000000
