COMMAND 6 SAMPLE 1
Accel X : 2898.00000000000;2880.00000000000;2870.00000000000;2850.00000000000;2862.00000000000;2847.00000000000;2896.00000000000;2898.00000000000;2902.00000000000;2863.00000000000;2876.00000000000;2879.00000000000;2876.00000000000;2906.00000000000;2898.00000000000;2891.00000000000;2842.00000000000;2882.00000000000;2859.00000000000;2880.00000000000;2878.00000000000;2883.00000000000;2883.00000000000;2867.00000000000;2888.00000000000;2861.00000000000;2897.00000000000;2873.00000000000;2872.00000000000;2885.00000000000;2888.00000000000;2873.00000000000;2879.00000000000;2892.00000000000;2874.00000000000;2893.00000000000;2899.00000000000;2896.00000000000;2902.00000000000;2866.00000000000;2891.00000000000;2901.00000000000;2898.00000000000;2888.00000000000;2875.00000000000;2952.00000000000;2992.00000000000;3174.00000000000;3444.00000000000;3238.00000000000;2754.00000000000;2428.00000000000;1753.00000000000;1445.00000000000;1803.00000000000;1761.00000000000;1547.00000000000;1911.00000000000;1985.00000000000;1919.00000000000;1854.00000000000;1880.00000000000;1954.00000000000;2006.00000000000;1998.00000000000;2005.00000000000;1976.00000000000;1990.00000000000;1999.00000000000;1952.00000000000;1988.00000000000;1988.00000000000;1970.00000000000;1946.00000000000;1986.00000000000;2016.00000000000;2012.00000000000;1973.00000000000;1994.00000000000;2031.00000000000;2012.00000000000;2022.00000000000;2020.00000000000;2001.00000000000;2004.00000000000;2026.00000000000;2013.00000000000;2025.00000000000;2011.00000000000;2019.00000000000;2046.00000000000;2028.00000000000;2017.00000000000;2026.00000000000;2025.00000000000;2024.00000000000;2033.00000000000;2016.00000000000;1988.00000000000;2008.00000000000;2039.00000000000;2023.00000000000;2029.00000000000;2065.00000000000;2046.00000000000;2046.00000000000;2002.00000000000;1929.00000000000;1730.00000000000;1731.00000000000;1933.00000000000;2369.00000000000;2380.00000000000;2802.00000000000;2992.00000000000;3071.00000000000;3067.00000000000;2958.00000000000;3024.00000000000;2839.00000000000;2822.00000000000;2928.00000000000;2877.00000000000;2915.00000000000;2954.00000000000;2899.00000000000;2843.00000000000;2862.00000000000;2856.00000000000;2897.00000000000;2885.00000000000;2846.00000000000;2855.00000000000;2833.00000000000;2861.00000000000;2858.00000000000;2900.00000000000;2849.00000000000;2842.00000000000;2858.00000000000;2867.00000000000;2863.00000000000;2870.00000000000;2885.00000000000;2888.00000000000;2879.00000000000;2870.00000000000;2899.00000000000;2886.00000000000;2863.00000000000
Accel Y : 2034.00000000000;2024.00000000000;2029.00000000000;2040.00000000000;2015.00000000000;2009.00000000000;2015.00000000000;2033.00000000000;2024.00000000000;2031.00000000000;2021.00000000000;2037.00000000000;2019.00000000000;2030.00000000000;2034.00000000000;2029.00000000000;2021.00000000000;2014.00000000000;1999.00000000000;2023.00000000000;2027.00000000000;2035.00000000000;2011.00000000000;2006.00000000000;2031.00000000000;2022.00000000000;2014.00000000000;2037.00000000000;2030.00000000000;2011.00000000000;2019.00000000000;2020.00000000000;2006.00000000000;2023.00000000000;2008.00000000000;2007.00000000000;2005.00000000000;2003.00000000000;2018.00000000000;1980.00000000000;1988.00000000000;1991.00000000000;2001.00000000000;2000.00000000000;1997.00000000000;1993.00000000000;2000.00000000000;2006.00000000000;2086.00000000000;2030.00000000000;2022.00000000000;2059.00000000000;1891.00000000000;2108.00000000000;2167.00000000000;2291.00000000000;2217.00000000000;2264.00000000000;2337.00000000000;2333.00000000000;2329.00000000000;2353.00000000000;2331.00000000000;2319.00000000000;2332.00000000000;2325.00000000000;2292.00000000000;2285.00000000000;2286.00000000000;2278.00000000000;2289.00000000000;2291.00000000000;2291.00000000000;2298.00000000000;2283.00000000000;2291.00000000000;2309.00000000000;2271.00000000000;2291.00000000000;2298.00000000000;2300.00000000000;2315.00000000000;2302.00000000000;2283.00000000000;2287.00000000000;2301.00000000000;2278.00000000000;2299.00000000000;2309.00000000000;2295.00000000000;2310.00000000000;2297.00000000000;2276.00000000000;2300.00000000000;2297.00000000000;2297.00000000000;2301.00000000000;2285.00000000000;2266.00000000000;2314.00000000000;2286.00000000000;2305.00000000000;2293.00000000000;2294.00000000000;2318.00000000000;2290.00000000000;2270.00000000000;2268.00000000000;2253.00000000000;2263.00000000000;2326.00000000000;2316.00000000000;2286.00000000000;2269.00000000000;2208.00000000000;2140.00000000000;2180.00000000000;2145.00000000000;2122.00000000000;2113.00000000000;2106.00000000000;2139.00000000000;2106.00000000000;2170.00000000000;2104.00000000000;2110.00000000000;2095.00000000000;2088.00000000000;2073.00000000000;2067.00000000000;2075.00000000000;2068.00000000000;2094.00000000000;2062.00000000000;2075.00000000000;2090.00000000000;2070.00000000000;2063.00000000000;2074.00000000000;2038.00000000000;2045.00000000000;2063.00000000000;2054.00000000000;2075.00000000000;2070.00000000000;2058.00000000000;2050.00000000000;2074.00000000000;2095.00000000000;2055.00000000000
Accel Z : 1773.00000000000;1772.00000000000;1747.00000000000;1785.00000000000;1771.00000000000;1766.00000000000;1778.00000000000;1774.00000000000;1755.00000000000;1751.00000000000;1746.00000000000;1755.00000000000;1775.00000000000;1751.00000000000;1783.00000000000;1754.00000000000;1760.00000000000;1775.00000000000;1766.00000000000;1788.00000000000;1780.00000000000;1751.00000000000;1758.00000000000;1771.00000000000;1763.00000000000;1763.00000000000;1776.00000000000;1765.00000000000;1779.00000000000;1792.00000000000;1788.00000000000;1785.00000000000;1786.00000000000;1786.00000000000;1794.00000000000;1790.00000000000;1774.00000000000;1808.00000000000;1771.00000000000;1769.00000000000;1795.00000000000;1779.00000000000;1787.00000000000;1820.00000000000;1815.00000000000;1826.00000000000;1863.00000000000;1822.00000000000;1925.00000000000;1918.00000000000;1904.00000000000;1800.00000000000;1995.00000000000;2301.00000000000;2487.00000000000;2540.00000000000;2379.00000000000;2594.00000000000;2725.00000000000;2793.00000000000;2752.00000000000;2751.00000000000;2723.00000000000;2741.00000000000;2776.00000000000;2756.00000000000;2709.00000000000;2690.00000000000;2669.00000000000;2639.00000000000;2676.00000000000;2657.00000000000;2642.00000000000;2624.00000000000;2640.00000000000;2624.00000000000;2634.00000000000;2654.00000000000;2625.00000000000;2633.00000000000;2633.00000000000;2630.00000000000;2634.00000000000;2633.00000000000;2644.00000000000;2668.00000000000;2634.00000000000;2650.00000000000;2673.00000000000;2648.00000000000;2640.00000000000;2659.00000000000;2651.00000000000;2660.00000000000;2637.00000000000;2665.00000000000;2653.00000000000;2640.00000000000;2642.00000000000;2637.00000000000;2632.00000000000;2612.00000000000;2638.00000000000;2643.00000000000;2629.00000000000;2640.00000000000;2625.00000000000;2598.00000000000;2611.00000000000;2575.00000000000;2435.00000000000;2403.00000000000;2216.00000000000;2080.00000000000;2054.00000000000;2088.00000000000;2093.00000000000;1919.00000000000;1948.00000000000;1867.00000000000;1814.00000000000;1860.00000000000;1812.00000000000;1788.00000000000;1765.00000000000;1770.00000000000;1760.00000000000;1759.00000000000;1778.00000000000;1784.00000000000;1781.00000000000;1779.00000000000;1789.00000000000;1794.00000000000;1797.00000000000;1793.00000000000;1807.00000000000;1801.00000000000;1836.00000000000;1820.00000000000;1803.00000000000;1813.00000000000;1805.00000000000;1824.00000000000;1789.00000000000;1809.00000000000;1793.00000000000;1809.00000000000;1799.00000000000;1808.00000000000
Gyro X : 2898.00000000000;2880.00000000000;2870.00000000000;2850.00000000000;2862.00000000000;2847.00000000000;2896.00000000000;2898.00000000000;2902.00000000000;2863.00000000000;2876.00000000000;2879.00000000000;2876.00000000000;2906.00000000000;2898.00000000000;2891.00000000000;2842.00000000000;2882.00000000000;2859.00000000000;2880.00000000000;2878.00000000000;2883.00000000000;2883.00000000000;2867.00000000000;2888.00000000000;2861.00000000000;2897.00000000000;2873.00000000000;2872.00000000000;2885.00000000000;2888.00000000000;2873.00000000000;2879.00000000000;2892.00000000000;2874.00000000000;2893.00000000000;2899.00000000000;2896.00000000000;2902.00000000000;2866.00000000000;2891.00000000000;2901.00000000000;2898.00000000000;2888.00000000000;2875.00000000000;2952.00000000000;2992.00000000000;3174.00000000000;3444.00000000000;3238.00000000000;2754.00000000000;2428.00000000000;1753.00000000000;1445.00000000000;1803.00000000000;1761.00000000000;1547.00000000000;1911.00000000000;1985.00000000000;1919.00000000000;1854.00000000000;1880.00000000000;1954.00000000000;2006.00000000000;1998.00000000000;2005.00000000000;1976.00000000000;1990.00000000000;1999.00000000000;1952.00000000000;1988.00000000000;1988.00000000000;1970.00000000000;1946.00000000000;1986.00000000000;2016.00000000000;2012.00000000000;1973.00000000000;1994.00000000000;2031.00000000000;2012.00000000000;2022.00000000000;2020.00000000000;2001.00000000000;2004.00000000000;2026.00000000000;2013.00000000000;2025.00000000000;2011.00000000000;2019.00000000000;2046.00000000000;2028.00000000000;2017.00000000000;2026.00000000000;2025.00000000000;2024.00000000000;2033.00000000000;2016.00000000000;1988.00000000000;2008.00000000000;2039.00000000000;2023.00000000000;2029.00000000000;2065.00000000000;2046.00000000000;2046.00000000000;2002.00000000000;1929.00000000000;1730.00000000000;1731.00000000000;1933.00000000000;2369.00000000000;2380.00000000000;2802.00000000000;2992.00000000000;3071.00000000000;3067.00000000000;2958.00000000000;3024.00000000000;2839.00000000000;2822.00000000000;2928.00000000000;2877.00000000000;2915.00000000000;2954.00000000000;2899.00000000000;2843.00000000000;2862.00000000000;2856.00000000000;2897.00000000000;2885.00000000000;2846.00000000000;2855.00000000000;2833.00000000000;2861.00000000000;2858.00000000000;2900.00000000000;2849.00000000000;2842.00000000000;2858.00000000000;2867.00000000000;2863.00000000000;2870.00000000000;2885.00000000000;2888.00000000000;2879.00000000000;2870.00000000000;2899.00000000000;2886.00000000000;2863.00000000000
Gyro Y : 2034.00000000000;2024.00000000000;2029.00000000000;2040.00000000000;2015.00000000000;2009.00000000000;2015.00000000000;2033.00000000000;2024.00000000000;2031.00000000000;2021.00000000000;2037.00000000000;2019.00000000000;2030.00000000000;2034.00000000000;2029.00000000000;2021.00000000000;2014.00000000000;1999.00000000000;2023.00000000000;2027.00000000000;2035.00000000000;2011.00000000000;2006.00000000000;2031.00000000000;2022.00000000000;2014.00000000000;2037.00000000000;2030.00000000000;2011.00000000000;2019.00000000000;2020.00000000000;2006.00000000000;2023.00000000000;2008.00000000000;2007.00000000000;2005.00000000000;2003.00000000000;2018.00000000000;1980.00000000000;1988.00000000000;1991.00000000000;2001.00000000000;2000.00000000000;1997.00000000000;1993.00000000000;2000.00000000000;2006.00000000000;2086.00000000000;2030.00000000000;2022.00000000000;2059.00000000000;1891.00000000000;2108.00000000000;2167.00000000000;2291.00000000000;2217.00000000000;2264.00000000000;2337.00000000000;2333.00000000000;2329.00000000000;2353.00000000000;2331.00000000000;2319.00000000000;2332.00000000000;2325.00000000000;2292.00000000000;2285.00000000000;2286.00000000000;2278.00000000000;2289.00000000000;2291.00000000000;2291.00000000000;2298.00000000000;2283.00000000000;2291.00000000000;2309.00000000000;2271.00000000000;2291.00000000000;2298.00000000000;2300.00000000000;2315.00000000000;2302.00000000000;2283.00000000000;2287.00000000000;2301.00000000000;2278.00000000000;2299.00000000000;2309.00000000000;2295.00000000000;2310.00000000000;2297.00000000000;2276.00000000000;2300.00000000000;2297.00000000000;2297.00000000000;2301.00000000000;2285.00000000000;2266.00000000000;2314.00000000000;2286.00000000000;2305.00000000000;2293.00000000000;2294.00000000000;2318.00000000000;2290.00000000000;2270.00000000000;2268.00000000000;2253.00000000000;2263.00000000000;2326.00000000000;2316.00000000000;2286.00000000000;2269.00000000000;2208.00000000000;2140.00000000000;2180.00000000000;2145.00000000000;2122.00000000000;2113.00000000000;2106.00000000000;2139.00000000000;2106.00000000000;2170.00000000000;2104.00000000000;2110.00000000000;2095.00000000000;2088.00000000000;2073.00000000000;2067.00000000000;2075.00000000000;2068.00000000000;2094.00000000000;2062.00000000000;2075.00000000000;2090.00000000000;2070.00000000000;2063.00000000000;2074.00000000000;2038.00000000000;2045.00000000000;2063.00000000000;2054.00000000000;2075.00000000000;2070.00000000000;2058.00000000000;2050.00000000000;2074.00000000000;2095.00000000000;2055.00000000000
Gyro Z : 1773.00000000000;1772.00000000000;1747.00000000000;1785.00000000000;1771.00000000000;1766.00000000000;1778.00000000000;1774.00000000000;1755.00000000000;1751.00000000000;1746.00000000000;1755.00000000000;1775.00000000000;1751.00000000000;1783.00000000000;1754.00000000000;1760.00000000000;1775.00000000000;1766.00000000000;1788.00000000000;1780.00000000000;1751.00000000000;1758.00000000000;1771.00000000000;1763.00000000000;1763.00000000000;1776.00000000000;1765.00000000000;1779.00000000000;1792.00000000000;1788.00000000000;1785.00000000000;1786.00000000000;1786.00000000000;1794.00000000000;1790.00000000000;1774.00000000000;1808.00000000000;1771.00000000000;1769.00000000000;1795.00000000000;1779.00000000000;1787.00000000000;1820.00000000000;1815.00000000000;1826.00000000000;1863.00000000000;1822.00000000000;1925.00000000000;1918.00000000000;1904.00000000000;1800.00000000000;1995.00000000000;2301.00000000000;2487.00000000000;2540.00000000000;2379.00000000000;2594.00000000000;2725.00000000000;2793.00000000000;2752.00000000000;2751.00000000000;2723.00000000000;2741.00000000000;2776.00000000000;2756.00000000000;2709.00000000000;2690.00000000000;2669.00000000000;2639.00000000000;2676.00000000000;2657.00000000000;2642.00000000000;2624.00000000000;2640.00000000000;2624.00000000000;2634.00000000000;2654.00000000000;2625.00000000000;2633.00000000000;2633.00000000000;2630.00000000000;2634.00000000000;2633.00000000000;2644.00000000000;2668.00000000000;2634.00000000000;2650.00000000000;2673.00000000000;2648.00000000000;2640.00000000000;2659.00000000000;2651.00000000000;2660.00000000000;2637.00000000000;2665.00000000000;2653.00000000000;2640.00000000000;2642.00000000000;2637.00000000000;2632.00000000000;2612.00000000000;2638.00000000000;2643.00000000000;2629.00000000000;2640.00000000000;2625.00000000000;2598.00000000000;2611.00000000000;2575.00000000000;2435.00000000000;2403.00000000000;2216.00000000000;2080.00000000000;2054.00000000000;2088.00000000000;2093.00000000000;1919.00000000000;1948.00000000000;1867.00000000000;1814.00000000000;1860.00000000000;1812.00000000000;1788.00000000000;1765.00000000000;1770.00000000000;1760.00000000000;1759.00000000000;1778.00000000000;1784.00000000000;1781.00000000000;1779.00000000000;1789.00000000000;1794.00000000000;1797.00000000000;1793.00000000000;1807.00000000000;1801.00000000000;1836.00000000000;1820.00000000000;1803.00000000000;1813.00000000000;1805.00000000000;1824.00000000000;1789.00000000000;1809.00000000000;1793.00000000000;1809.00000000000;1799.00000000000;1808.00000000000
