COMMAND 3 SAMPLE 1
Accel X : 2812.00000000000;2819.00000000000;2806.00000000000;2786.00000000000;2777.00000000000;2799.00000000000;2838.00000000000;2805.00000000000;2810.00000000000;2792.00000000000;2775.00000000000;2811.00000000000;2783.00000000000;2803.00000000000;2797.00000000000;2821.00000000000;2809.00000000000;2788.00000000000;2809.00000000000;2800.00000000000;2809.00000000000;2823.00000000000;2844.00000000000;2821.00000000000;2817.00000000000;2829.00000000000;2811.00000000000;2816.00000000000;2831.00000000000;2810.00000000000;2809.00000000000;2806.00000000000;2790.00000000000;2818.00000000000;2819.00000000000;2808.00000000000;2828.00000000000;2816.00000000000;2793.00000000000;2827.00000000000;2814.00000000000;2816.00000000000;2797.00000000000;2794.00000000000;2839.00000000000;2772.00000000000;2710.00000000000;2763.00000000000;2792.00000000000;2942.00000000000;3021.00000000000;3163.00000000000;3197.00000000000;3349.00000000000;3441.00000000000;3448.00000000000;3343.00000000000;3277.00000000000;3292.00000000000;3408.00000000000;3151.00000000000;3088.00000000000;3056.00000000000;2887.00000000000;2701.00000000000;2723.00000000000;2569.00000000000;2544.00000000000;2490.00000000000;2402.00000000000;2259.00000000000;2125.00000000000;2070.00000000000;2084.00000000000;1946.00000000000;1900.00000000000;1885.00000000000;1860.00000000000;1799.00000000000;1790.00000000000;1701.00000000000;1617.00000000000;1626.00000000000;1650.00000000000;1647.00000000000;1665.00000000000;1688.00000000000;1758.00000000000;1820.00000000000;1807.00000000000;1899.00000000000;1922.00000000000;1973.00000000000;2035.00000000000;2124.00000000000;2129.00000000000;2232.00000000000;2171.00000000000;2249.00000000000;2517.00000000000;2526.00000000000;2769.00000000000;3275.00000000000;3508.00000000000;3742.00000000000;3856.00000000000;3926.00000000000;4073.00000000000;3880.00000000000;3652.00000000000;2985.00000000000;3353.00000000000;3230.00000000000;3626.00000000000;3368.00000000000;3118.00000000000;3021.00000000000;2967.00000000000;2915.00000000000;3010.00000000000;2954.00000000000;2972.00000000000;2943.00000000000;2886.00000000000;2861.00000000000;2818.00000000000;2801.00000000000;2752.00000000000;2768.00000000000;2764.00000000000;2794.00000000000;2796.00000000000;2776.00000000000;2760.00000000000;2734.00000000000;2778.00000000000;2798.00000000000;2801.00000000000;2831.00000000000;2839.00000000000;2831.00000000000;2859.00000000000;2852.00000000000;2807.00000000000;2880.00000000000;2871.00000000000;2873.00000000000;2882.00000000000;2865.00000000000;2868.00000000000
Accel Y : 2155.00000000000;2122.00000000000;2145.00000000000;2149.00000000000;2154.00000000000;2148.00000000000;2137.00000000000;2162.00000000000;2146.00000000000;2142.00000000000;2156.00000000000;2144.00000000000;2141.00000000000;2147.00000000000;2145.00000000000;2141.00000000000;2142.00000000000;2155.00000000000;2138.00000000000;2135.00000000000;2127.00000000000;2111.00000000000;2119.00000000000;2133.00000000000;2112.00000000000;2127.00000000000;2118.00000000000;2146.00000000000;2148.00000000000;2143.00000000000;2155.00000000000;2132.00000000000;2125.00000000000;2176.00000000000;2133.00000000000;2143.00000000000;2117.00000000000;2150.00000000000;2137.00000000000;2137.00000000000;2123.00000000000;2140.00000000000;2133.00000000000;2126.00000000000;2122.00000000000;2097.00000000000;2076.00000000000;2061.00000000000;2035.00000000000;1982.00000000000;1954.00000000000;1878.00000000000;1792.00000000000;1732.00000000000;1667.00000000000;1603.00000000000;1485.00000000000;1481.00000000000;1434.00000000000;1412.00000000000;1367.00000000000;1435.00000000000;1470.00000000000;1578.00000000000;1652.00000000000;1761.00000000000;1764.00000000000;1747.00000000000;1767.00000000000;1815.00000000000;1896.00000000000;1935.00000000000;1918.00000000000;2087.00000000000;2115.00000000000;2122.00000000000;2076.00000000000;2080.00000000000;2063.00000000000;2034.00000000000;2010.00000000000;1964.00000000000;1916.00000000000;1925.00000000000;1894.00000000000;1843.00000000000;1833.00000000000;1864.00000000000;1923.00000000000;1942.00000000000;1969.00000000000;2018.00000000000;2030.00000000000;2141.00000000000;2120.00000000000;2191.00000000000;2196.00000000000;2122.00000000000;2064.00000000000;2054.00000000000;2060.00000000000;1977.00000000000;1886.00000000000;1844.00000000000;1894.00000000000;1964.00000000000;1849.00000000000;1951.00000000000;1963.00000000000;1963.00000000000;2053.00000000000;2260.00000000000;2195.00000000000;2211.00000000000;2167.00000000000;2105.00000000000;2118.00000000000;2119.00000000000;2178.00000000000;2231.00000000000;2261.00000000000;2285.00000000000;2311.00000000000;2288.00000000000;2281.00000000000;2280.00000000000;2293.00000000000;2278.00000000000;2276.00000000000;2265.00000000000;2259.00000000000;2249.00000000000;2217.00000000000;2226.00000000000;2191.00000000000;2198.00000000000;2183.00000000000;2198.00000000000;2202.00000000000;2183.00000000000;2188.00000000000;2158.00000000000;2171.00000000000;2157.00000000000;2176.00000000000;2163.00000000000;2175.00000000000;2163.00000000000;2175.00000000000;2151.00000000000
Accel Z : 2044.00000000000;2033.00000000000;2038.00000000000;2039.00000000000;2035.00000000000;2036.00000000000;2031.00000000000;2048.00000000000;2041.00000000000;2058.00000000000;2029.00000000000;2046.00000000000;2014.00000000000;2041.00000000000;2039.00000000000;2034.00000000000;2039.00000000000;2043.00000000000;2027.00000000000;2038.00000000000;2022.00000000000;2028.00000000000;2066.00000000000;2030.00000000000;2054.00000000000;2044.00000000000;2055.00000000000;2030.00000000000;2051.00000000000;2053.00000000000;2035.00000000000;2019.00000000000;2013.00000000000;2040.00000000000;2037.00000000000;2057.00000000000;2046.00000000000;2038.00000000000;2062.00000000000;2026.00000000000;2040.00000000000;2015.00000000000;2024.00000000000;1978.00000000000;2013.00000000000;1988.00000000000;1954.00000000000;1951.00000000000;1867.00000000000;1773.00000000000;1681.00000000000;1580.00000000000;1366.00000000000;1196.00000000000;1092.00000000000;852.000000000000;774.000000000000;639.000000000000;492.000000000000;313.000000000000;80.0000000000000;26.0000000000000;111.000000000000;121.000000000000;136.000000000000;310.000000000000;565.000000000000;735.000000000000;873.000000000000;1102.00000000000;1316.00000000000;1468.00000000000;1544.00000000000;1591.00000000000;1617.00000000000;1843.00000000000;1922.00000000000;2072.00000000000;2249.00000000000;2393.00000000000;2486.00000000000;2560.00000000000;2540.00000000000;2513.00000000000;2502.00000000000;2423.00000000000;2359.00000000000;2253.00000000000;2132.00000000000;2014.00000000000;1906.00000000000;1791.00000000000;1684.00000000000;1539.00000000000;1328.00000000000;1197.00000000000;1108.00000000000;909.000000000000;767.000000000000;646.000000000000;471.000000000000;143.000000000000;23.0000000000000;22.0000000000000;24.0000000000000;123.000000000000;511.000000000000;914.000000000000;1081.00000000000;1447.00000000000;1721.00000000000;1943.00000000000;1790.00000000000;2009.00000000000;2082.00000000000;2042.00000000000;1993.00000000000;1962.00000000000;1935.00000000000;1946.00000000000;1954.00000000000;1919.00000000000;1898.00000000000;1869.00000000000;1862.00000000000;1862.00000000000;1854.00000000000;1828.00000000000;1847.00000000000;1818.00000000000;1854.00000000000;1861.00000000000;1840.00000000000;1856.00000000000;1845.00000000000;1868.00000000000;1866.00000000000;1854.00000000000;1873.00000000000;1888.00000000000;1898.00000000000;1893.00000000000;1897.00000000000;1897.00000000000;1897.00000000000;1895.00000000000;1903.00000000000;1882.00000000000;1889.00000000000;1895.00000000000
Gyro X : 2812.00000000000;2819.00000000000;2806.00000000000;2786.00000000000;2777.00000000000;2799.00000000000;2838.00000000000;2805.00000000000;2810.00000000000;2792.00000000000;2775.00000000000;2811.00000000000;2783.00000000000;2803.00000000000;2797.00000000000;2821.00000000000;2809.00000000000;2788.00000000000;2809.00000000000;2800.00000000000;2809.00000000000;2823.00000000000;2844.00000000000;2821.00000000000;2817.00000000000;2829.00000000000;2811.00000000000;2816.00000000000;2831.00000000000;2810.00000000000;2809.00000000000;2806.00000000000;2790.00000000000;2818.00000000000;2819.00000000000;2808.00000000000;2828.00000000000;2816.00000000000;2793.00000000000;2827.00000000000;2814.00000000000;2816.00000000000;2797.00000000000;2794.00000000000;2839.00000000000;2772.00000000000;2710.00000000000;2763.00000000000;2792.00000000000;2942.00000000000;3021.00000000000;3163.00000000000;3197.00000000000;3349.00000000000;3441.00000000000;3448.00000000000;3343.00000000000;3277.00000000000;3292.00000000000;3408.00000000000;3151.00000000000;3088.00000000000;3056.00000000000;2887.00000000000;2701.00000000000;2723.00000000000;2569.00000000000;2544.00000000000;2490.00000000000;2402.00000000000;2259.00000000000;2125.00000000000;2070.00000000000;2084.00000000000;1946.00000000000;1900.00000000000;1885.00000000000;1860.00000000000;1799.00000000000;1790.00000000000;1701.00000000000;1617.00000000000;1626.00000000000;1650.00000000000;1647.00000000000;1665.00000000000;1688.00000000000;1758.00000000000;1820.00000000000;1807.00000000000;1899.00000000000;1922.00000000000;1973.00000000000;2035.00000000000;2124.00000000000;2129.00000000000;2232.00000000000;2171.00000000000;2249.00000000000;2517.00000000000;2526.00000000000;2769.00000000000;3275.00000000000;3508.00000000000;3742.00000000000;3856.00000000000;3926.00000000000;4073.00000000000;3880.00000000000;3652.00000000000;2985.00000000000;3353.00000000000;3230.00000000000;3626.00000000000;3368.00000000000;3118.00000000000;3021.00000000000;2967.00000000000;2915.00000000000;3010.00000000000;2954.00000000000;2972.00000000000;2943.00000000000;2886.00000000000;2861.00000000000;2818.00000000000;2801.00000000000;2752.00000000000;2768.00000000000;2764.00000000000;2794.00000000000;2796.00000000000;2776.00000000000;2760.00000000000;2734.00000000000;2778.00000000000;2798.00000000000;2801.00000000000;2831.00000000000;2839.00000000000;2831.00000000000;2859.00000000000;2852.00000000000;2807.00000000000;2880.00000000000;2871.00000000000;2873.00000000000;2882.00000000000;2865.00000000000;2868.00000000000
Gyro Y : 2155.00000000000;2122.00000000000;2145.00000000000;2149.00000000000;2154.00000000000;2148.00000000000;2137.00000000000;2162.00000000000;2146.00000000000;2142.00000000000;2156.00000000000;2144.00000000000;2141.00000000000;2147.00000000000;2145.00000000000;2141.00000000000;2142.00000000000;2155.00000000000;2138.00000000000;2135.00000000000;2127.00000000000;2111.00000000000;2119.00000000000;2133.00000000000;2112.00000000000;2127.00000000000;2118.00000000000;2146.00000000000;2148.00000000000;2143.00000000000;2155.00000000000;2132.00000000000;2125.00000000000;2176.00000000000;2133.00000000000;2143.00000000000;2117.00000000000;2150.00000000000;2137.00000000000;2137.00000000000;2123.00000000000;2140.00000000000;2133.00000000000;2126.00000000000;2122.00000000000;2097.00000000000;2076.00000000000;2061.00000000000;2035.00000000000;1982.00000000000;1954.00000000000;1878.00000000000;1792.00000000000;1732.00000000000;1667.00000000000;1603.00000000000;1485.00000000000;1481.00000000000;1434.00000000000;1412.00000000000;1367.00000000000;1435.00000000000;1470.00000000000;1578.00000000000;1652.00000000000;1761.00000000000;1764.00000000000;1747.00000000000;1767.00000000000;1815.00000000000;1896.00000000000;1935.00000000000;1918.00000000000;2087.00000000000;2115.00000000000;2122.00000000000;2076.00000000000;2080.00000000000;2063.00000000000;2034.00000000000;2010.00000000000;1964.00000000000;1916.00000000000;1925.00000000000;1894.00000000000;1843.00000000000;1833.00000000000;1864.00000000000;1923.00000000000;1942.00000000000;1969.00000000000;2018.00000000000;2030.00000000000;2141.00000000000;2120.00000000000;2191.00000000000;2196.00000000000;2122.00000000000;2064.00000000000;2054.00000000000;2060.00000000000;1977.00000000000;1886.00000000000;1844.00000000000;1894.00000000000;1964.00000000000;1849.00000000000;1951.00000000000;1963.00000000000;1963.00000000000;2053.00000000000;2260.00000000000;2195.00000000000;2211.00000000000;2167.00000000000;2105.00000000000;2118.00000000000;2119.00000000000;2178.00000000000;2231.00000000000;2261.00000000000;2285.00000000000;2311.00000000000;2288.00000000000;2281.00000000000;2280.00000000000;2293.00000000000;2278.00000000000;2276.00000000000;2265.00000000000;2259.00000000000;2249.00000000000;2217.00000000000;2226.00000000000;2191.00000000000;2198.00000000000;2183.00000000000;2198.00000000000;2202.00000000000;2183.00000000000;2188.00000000000;2158.00000000000;2171.00000000000;2157.00000000000;2176.00000000000;2163.00000000000;2175.00000000000;2163.00000000000;2175.00000000000;2151.00000000000
Gyro Z : 2044.00000000000;2033.00000000000;2038.00000000000;2039.00000000000;2035.00000000000;2036.00000000000;2031.00000000000;2048.00000000000;2041.00000000000;2058.00000000000;2029.00000000000;2046.00000000000;2014.00000000000;2041.00000000000;2039.00000000000;2034.00000000000;2039.00000000000;2043.00000000000;2027.00000000000;2038.00000000000;2022.00000000000;2028.00000000000;2066.00000000000;2030.00000000000;2054.00000000000;2044.00000000000;2055.00000000000;2030.00000000000;2051.00000000000;2053.00000000000;2035.00000000000;2019.00000000000;2013.00000000000;2040.00000000000;2037.00000000000;2057.00000000000;2046.00000000000;2038.00000000000;2062.00000000000;2026.00000000000;2040.00000000000;2015.00000000000;2024.00000000000;1978.00000000000;2013.00000000000;1988.00000000000;1954.00000000000;1951.00000000000;1867.00000000000;1773.00000000000;1681.00000000000;1580.00000000000;1366.00000000000;1196.00000000000;1092.00000000000;852.000000000000;774.000000000000;639.000000000000;492.000000000000;313.000000000000;80.0000000000000;26.0000000000000;111.000000000000;121.000000000000;136.000000000000;310.000000000000;565.000000000000;735.000000000000;873.000000000000;1102.00000000000;1316.00000000000;1468.00000000000;1544.00000000000;1591.00000000000;1617.00000000000;1843.00000000000;1922.00000000000;2072.00000000000;2249.00000000000;2393.00000000000;2486.00000000000;2560.00000000000;2540.00000000000;2513.00000000000;2502.00000000000;2423.00000000000;2359.00000000000;2253.00000000000;2132.00000000000;2014.00000000000;1906.00000000000;1791.00000000000;1684.00000000000;1539.00000000000;1328.00000000000;1197.00000000000;1108.00000000000;909.000000000000;767.000000000000;646.000000000000;471.000000000000;143.000000000000;23.0000000000000;22.0000000000000;24.0000000000000;123.000000000000;511.000000000000;914.000000000000;1081.00000000000;1447.00000000000;1721.00000000000;1943.00000000000;1790.00000000000;2009.00000000000;2082.00000000000;2042.00000000000;1993.00000000000;1962.00000000000;1935.00000000000;1946.00000000000;1954.00000000000;1919.00000000000;1898.00000000000;1869.00000000000;1862.00000000000;1862.00000000000;1854.00000000000;1828.00000000000;1847.00000000000;1818.00000000000;1854.00000000000;1861.00000000000;1840.00000000000;1856.00000000000;1845.00000000000;1868.00000000000;1866.00000000000;1854.00000000000;1873.00000000000;1888.00000000000;1898.00000000000;1893.00000000000;1897.00000000000;1897.00000000000;1897.00000000000;1895.00000000000;1903.00000000000;1882.00000000000;1889.00000000000;1895.00000000000
