COMMAND 3 SAMPLE 1
Accel X : 2799.00000000000;2818.00000000000;2809.00000000000;2815.00000000000;2816.00000000000;2826.00000000000;2829.00000000000;2817.00000000000;2833.00000000000;2822.00000000000;2817.00000000000;2842.00000000000;2824.00000000000;2839.00000000000;2840.00000000000;2815.00000000000;2820.00000000000;2830.00000000000;2848.00000000000;2817.00000000000;2839.00000000000;2812.00000000000;2827.00000000000;2813.00000000000;2840.00000000000;2835.00000000000;2834.00000000000;2853.00000000000;2846.00000000000;2828.00000000000;2828.00000000000;2860.00000000000;2862.00000000000;2862.00000000000;2863.00000000000;2871.00000000000;2833.00000000000;2914.00000000000;3102.00000000000;3040.00000000000;3120.00000000000;3161.00000000000;3247.00000000000;3295.00000000000;3310.00000000000;3309.00000000000;3263.00000000000;3241.00000000000;3208.00000000000;3188.00000000000;3026.00000000000;2879.00000000000;2884.00000000000;3143.00000000000;2935.00000000000;2717.00000000000;2507.00000000000;2430.00000000000;2530.00000000000;2436.00000000000;2310.00000000000;2269.00000000000;2228.00000000000;2164.00000000000;2157.00000000000;1996.00000000000;1941.00000000000;1849.00000000000;1861.00000000000;1802.00000000000;1693.00000000000;1684.00000000000;1621.00000000000;1573.00000000000;1566.00000000000;1505.00000000000;1610.00000000000;1636.00000000000;1752.00000000000;1751.00000000000;1737.00000000000;1733.00000000000;1840.00000000000;1908.00000000000;1901.00000000000;1701.00000000000;1854.00000000000;1797.00000000000;1621.00000000000;1913.00000000000;1940.00000000000;2267.00000000000;2587.00000000000;2842.00000000000;2924.00000000000;3191.00000000000;3859.00000000000;4075.00000000000;4076.00000000000;4075.00000000000;4075.00000000000;4075.00000000000;4073.00000000000;3928.00000000000;3691.00000000000;3543.00000000000;3404.00000000000;3252.00000000000;3119.00000000000;3043.00000000000;2975.00000000000;2952.00000000000;2917.00000000000;2894.00000000000;2877.00000000000;2849.00000000000;2832.00000000000;2826.00000000000;2840.00000000000;2782.00000000000;2770.00000000000;2818.00000000000;2839.00000000000;2812.00000000000;2824.00000000000;2835.00000000000;2843.00000000000;2901.00000000000;2920.00000000000;2914.00000000000;2910.00000000000;2885.00000000000;2909.00000000000;2887.00000000000;2905.00000000000;2894.00000000000;2888.00000000000;2833.00000000000;2834.00000000000;2841.00000000000;2870.00000000000;2875.00000000000;2869.00000000000;2842.00000000000;2817.00000000000;2872.00000000000;2919.00000000000;2902.00000000000;2890.00000000000;2883.00000000000
Accel Y : 2185.00000000000;2181.00000000000;2208.00000000000;2199.00000000000;2181.00000000000;2176.00000000000;2175.00000000000;2175.00000000000;2183.00000000000;2187.00000000000;2190.00000000000;2198.00000000000;2173.00000000000;2166.00000000000;2176.00000000000;2189.00000000000;2159.00000000000;2181.00000000000;2183.00000000000;2193.00000000000;2173.00000000000;2198.00000000000;2172.00000000000;2173.00000000000;2181.00000000000;2183.00000000000;2167.00000000000;2179.00000000000;2187.00000000000;2173.00000000000;2167.00000000000;2150.00000000000;2139.00000000000;2130.00000000000;2128.00000000000;2080.00000000000;2079.00000000000;2049.00000000000;2038.00000000000;1948.00000000000;1872.00000000000;1844.00000000000;1770.00000000000;1695.00000000000;1642.00000000000;1563.00000000000;1497.00000000000;1471.00000000000;1506.00000000000;1440.00000000000;1408.00000000000;1363.00000000000;1340.00000000000;1371.00000000000;1414.00000000000;1526.00000000000;1563.00000000000;1637.00000000000;1623.00000000000;1655.00000000000;1686.00000000000;1730.00000000000;1829.00000000000;1899.00000000000;1971.00000000000;2045.00000000000;2136.00000000000;2172.00000000000;2158.00000000000;2136.00000000000;2077.00000000000;2058.00000000000;2029.00000000000;1954.00000000000;1877.00000000000;1824.00000000000;1765.00000000000;1738.00000000000;1699.00000000000;1711.00000000000;1690.00000000000;1702.00000000000;1714.00000000000;1701.00000000000;1674.00000000000;1587.00000000000;1668.00000000000;1746.00000000000;1925.00000000000;1951.00000000000;1946.00000000000;2072.00000000000;2306.00000000000;2371.00000000000;2207.00000000000;2258.00000000000;2511.00000000000;2352.00000000000;2050.00000000000;1966.00000000000;1975.00000000000;1935.00000000000;1846.00000000000;1761.00000000000;1800.00000000000;1828.00000000000;1911.00000000000;1980.00000000000;2021.00000000000;2063.00000000000;2078.00000000000;2088.00000000000;2113.00000000000;2123.00000000000;2135.00000000000;2147.00000000000;2163.00000000000;2147.00000000000;2168.00000000000;2155.00000000000;2163.00000000000;2138.00000000000;2148.00000000000;2153.00000000000;2143.00000000000;2145.00000000000;2131.00000000000;2138.00000000000;2177.00000000000;2177.00000000000;2188.00000000000;2183.00000000000;2158.00000000000;2174.00000000000;2166.00000000000;2141.00000000000;2148.00000000000;2165.00000000000;2164.00000000000;2176.00000000000;2177.00000000000;2227.00000000000;2248.00000000000;2254.00000000000;2243.00000000000;2259.00000000000;2255.00000000000;2269.00000000000;2297.00000000000;2287.00000000000
Accel Z : 1972.00000000000;1972.00000000000;1996.00000000000;1994.00000000000;1985.00000000000;1993.00000000000;1957.00000000000;1990.00000000000;1998.00000000000;1973.00000000000;2000.00000000000;1976.00000000000;2006.00000000000;1999.00000000000;1993.00000000000;1982.00000000000;2001.00000000000;2003.00000000000;1976.00000000000;2003.00000000000;1987.00000000000;1997.00000000000;2011.00000000000;1974.00000000000;1995.00000000000;1973.00000000000;1977.00000000000;1977.00000000000;1976.00000000000;2005.00000000000;1969.00000000000;1996.00000000000;1985.00000000000;1968.00000000000;1970.00000000000;1949.00000000000;1935.00000000000;1891.00000000000;1879.00000000000;1808.00000000000;1686.00000000000;1627.00000000000;1479.00000000000;1452.00000000000;1367.00000000000;1233.00000000000;1004.00000000000;951.000000000000;794.000000000000;670.000000000000;588.000000000000;430.000000000000;243.000000000000;349.000000000000;413.000000000000;362.000000000000;212.000000000000;302.000000000000;583.000000000000;837.000000000000;873.000000000000;979.000000000000;1132.00000000000;1313.00000000000;1483.00000000000;1653.00000000000;1777.00000000000;1933.00000000000;2099.00000000000;2273.00000000000;2364.00000000000;2484.00000000000;2619.00000000000;2622.00000000000;2638.00000000000;2622.00000000000;2596.00000000000;2483.00000000000;2331.00000000000;2192.00000000000;2048.00000000000;2016.00000000000;1993.00000000000;1885.00000000000;1734.00000000000;1670.00000000000;1742.00000000000;1739.00000000000;1834.00000000000;1647.00000000000;1730.00000000000;1950.00000000000;1854.00000000000;1797.00000000000;1686.00000000000;1799.00000000000;1976.00000000000;1870.00000000000;1687.00000000000;1679.00000000000;1790.00000000000;1864.00000000000;1866.00000000000;1884.00000000000;1899.00000000000;1892.00000000000;1888.00000000000;1851.00000000000;1879.00000000000;1877.00000000000;1813.00000000000;1775.00000000000;1744.00000000000;1712.00000000000;1667.00000000000;1655.00000000000;1694.00000000000;1688.00000000000;1675.00000000000;1676.00000000000;1651.00000000000;1694.00000000000;1684.00000000000;1689.00000000000;1672.00000000000;1710.00000000000;1699.00000000000;1711.00000000000;1715.00000000000;1719.00000000000;1697.00000000000;1689.00000000000;1703.00000000000;1731.00000000000;1744.00000000000;1716.00000000000;1743.00000000000;1726.00000000000;1756.00000000000;1744.00000000000;1755.00000000000;1720.00000000000;1724.00000000000;1733.00000000000;1747.00000000000;1741.00000000000;1725.00000000000;1743.00000000000;1733.00000000000;1729.00000000000
Gyro X : 2799.00000000000;2818.00000000000;2809.00000000000;2815.00000000000;2816.00000000000;2826.00000000000;2829.00000000000;2817.00000000000;2833.00000000000;2822.00000000000;2817.00000000000;2842.00000000000;2824.00000000000;2839.00000000000;2840.00000000000;2815.00000000000;2820.00000000000;2830.00000000000;2848.00000000000;2817.00000000000;2839.00000000000;2812.00000000000;2827.00000000000;2813.00000000000;2840.00000000000;2835.00000000000;2834.00000000000;2853.00000000000;2846.00000000000;2828.00000000000;2828.00000000000;2860.00000000000;2862.00000000000;2862.00000000000;2863.00000000000;2871.00000000000;2833.00000000000;2914.00000000000;3102.00000000000;3040.00000000000;3120.00000000000;3161.00000000000;3247.00000000000;3295.00000000000;3310.00000000000;3309.00000000000;3263.00000000000;3241.00000000000;3208.00000000000;3188.00000000000;3026.00000000000;2879.00000000000;2884.00000000000;3143.00000000000;2935.00000000000;2717.00000000000;2507.00000000000;2430.00000000000;2530.00000000000;2436.00000000000;2310.00000000000;2269.00000000000;2228.00000000000;2164.00000000000;2157.00000000000;1996.00000000000;1941.00000000000;1849.00000000000;1861.00000000000;1802.00000000000;1693.00000000000;1684.00000000000;1621.00000000000;1573.00000000000;1566.00000000000;1505.00000000000;1610.00000000000;1636.00000000000;1752.00000000000;1751.00000000000;1737.00000000000;1733.00000000000;1840.00000000000;1908.00000000000;1901.00000000000;1701.00000000000;1854.00000000000;1797.00000000000;1621.00000000000;1913.00000000000;1940.00000000000;2267.00000000000;2587.00000000000;2842.00000000000;2924.00000000000;3191.00000000000;3859.00000000000;4075.00000000000;4076.00000000000;4075.00000000000;4075.00000000000;4075.00000000000;4073.00000000000;3928.00000000000;3691.00000000000;3543.00000000000;3404.00000000000;3252.00000000000;3119.00000000000;3043.00000000000;2975.00000000000;2952.00000000000;2917.00000000000;2894.00000000000;2877.00000000000;2849.00000000000;2832.00000000000;2826.00000000000;2840.00000000000;2782.00000000000;2770.00000000000;2818.00000000000;2839.00000000000;2812.00000000000;2824.00000000000;2835.00000000000;2843.00000000000;2901.00000000000;2920.00000000000;2914.00000000000;2910.00000000000;2885.00000000000;2909.00000000000;2887.00000000000;2905.00000000000;2894.00000000000;2888.00000000000;2833.00000000000;2834.00000000000;2841.00000000000;2870.00000000000;2875.00000000000;2869.00000000000;2842.00000000000;2817.00000000000;2872.00000000000;2919.00000000000;2902.00000000000;2890.00000000000;2883.00000000000
Gyro Y : 2185.00000000000;2181.00000000000;2208.00000000000;2199.00000000000;2181.00000000000;2176.00000000000;2175.00000000000;2175.00000000000;2183.00000000000;2187.00000000000;2190.00000000000;2198.00000000000;2173.00000000000;2166.00000000000;2176.00000000000;2189.00000000000;2159.00000000000;2181.00000000000;2183.00000000000;2193.00000000000;2173.00000000000;2198.00000000000;2172.00000000000;2173.00000000000;2181.00000000000;2183.00000000000;2167.00000000000;2179.00000000000;2187.00000000000;2173.00000000000;2167.00000000000;2150.00000000000;2139.00000000000;2130.00000000000;2128.00000000000;2080.00000000000;2079.00000000000;2049.00000000000;2038.00000000000;1948.00000000000;1872.00000000000;1844.00000000000;1770.00000000000;1695.00000000000;1642.00000000000;1563.00000000000;1497.00000000000;1471.00000000000;1506.00000000000;1440.00000000000;1408.00000000000;1363.00000000000;1340.00000000000;1371.00000000000;1414.00000000000;1526.00000000000;1563.00000000000;1637.00000000000;1623.00000000000;1655.00000000000;1686.00000000000;1730.00000000000;1829.00000000000;1899.00000000000;1971.00000000000;2045.00000000000;2136.00000000000;2172.00000000000;2158.00000000000;2136.00000000000;2077.00000000000;2058.00000000000;2029.00000000000;1954.00000000000;1877.00000000000;1824.00000000000;1765.00000000000;1738.00000000000;1699.00000000000;1711.00000000000;1690.00000000000;1702.00000000000;1714.00000000000;1701.00000000000;1674.00000000000;1587.00000000000;1668.00000000000;1746.00000000000;1925.00000000000;1951.00000000000;1946.00000000000;2072.00000000000;2306.00000000000;2371.00000000000;2207.00000000000;2258.00000000000;2511.00000000000;2352.00000000000;2050.00000000000;1966.00000000000;1975.00000000000;1935.00000000000;1846.00000000000;1761.00000000000;1800.00000000000;1828.00000000000;1911.00000000000;1980.00000000000;2021.00000000000;2063.00000000000;2078.00000000000;2088.00000000000;2113.00000000000;2123.00000000000;2135.00000000000;2147.00000000000;2163.00000000000;2147.00000000000;2168.00000000000;2155.00000000000;2163.00000000000;2138.00000000000;2148.00000000000;2153.00000000000;2143.00000000000;2145.00000000000;2131.00000000000;2138.00000000000;2177.00000000000;2177.00000000000;2188.00000000000;2183.00000000000;2158.00000000000;2174.00000000000;2166.00000000000;2141.00000000000;2148.00000000000;2165.00000000000;2164.00000000000;2176.00000000000;2177.00000000000;2227.00000000000;2248.00000000000;2254.00000000000;2243.00000000000;2259.00000000000;2255.00000000000;2269.00000000000;2297.00000000000;2287.00000000000
Gyro Z : 1972.00000000000;1972.00000000000;1996.00000000000;1994.00000000000;1985.00000000000;1993.00000000000;1957.00000000000;1990.00000000000;1998.00000000000;1973.00000000000;2000.00000000000;1976.00000000000;2006.00000000000;1999.00000000000;1993.00000000000;1982.00000000000;2001.00000000000;2003.00000000000;1976.00000000000;2003.00000000000;1987.00000000000;1997.00000000000;2011.00000000000;1974.00000000000;1995.00000000000;1973.00000000000;1977.00000000000;1977.00000000000;1976.00000000000;2005.00000000000;1969.00000000000;1996.00000000000;1985.00000000000;1968.00000000000;1970.00000000000;1949.00000000000;1935.00000000000;1891.00000000000;1879.00000000000;1808.00000000000;1686.00000000000;1627.00000000000;1479.00000000000;1452.00000000000;1367.00000000000;1233.00000000000;1004.00000000000;951.000000000000;794.000000000000;670.000000000000;588.000000000000;430.000000000000;243.000000000000;349.000000000000;413.000000000000;362.000000000000;212.000000000000;302.000000000000;583.000000000000;837.000000000000;873.000000000000;979.000000000000;1132.00000000000;1313.00000000000;1483.00000000000;1653.00000000000;1777.00000000000;1933.00000000000;2099.00000000000;2273.00000000000;2364.00000000000;2484.00000000000;2619.00000000000;2622.00000000000;2638.00000000000;2622.00000000000;2596.00000000000;2483.00000000000;2331.00000000000;2192.00000000000;2048.00000000000;2016.00000000000;1993.00000000000;1885.00000000000;1734.00000000000;1670.00000000000;1742.00000000000;1739.00000000000;1834.00000000000;1647.00000000000;1730.00000000000;1950.00000000000;1854.00000000000;1797.00000000000;1686.00000000000;1799.00000000000;1976.00000000000;1870.00000000000;1687.00000000000;1679.00000000000;1790.00000000000;1864.00000000000;1866.00000000000;1884.00000000000;1899.00000000000;1892.00000000000;1888.00000000000;1851.00000000000;1879.00000000000;1877.00000000000;1813.00000000000;1775.00000000000;1744.00000000000;1712.00000000000;1667.00000000000;1655.00000000000;1694.00000000000;1688.00000000000;1675.00000000000;1676.00000000000;1651.00000000000;1694.00000000000;1684.00000000000;1689.00000000000;1672.00000000000;1710.00000000000;1699.00000000000;1711.00000000000;1715.00000000000;1719.00000000000;1697.00000000000;1689.00000000000;1703.00000000000;1731.00000000000;1744.00000000000;1716.00000000000;1743.00000000000;1726.00000000000;1756.00000000000;1744.00000000000;1755.00000000000;1720.00000000000;1724.00000000000;1733.00000000000;1747.00000000000;1741.00000000000;1725.00000000000;1743.00000000000;1733.00000000000;1729.00000000000
