COMMAND 1 SAMPLE 1
Accel X : 2875.00000000000;2899.00000000000;2869.00000000000;2888.00000000000;2872.00000000000;2871.00000000000;2877.00000000000;2859.00000000000;2872.00000000000;2871.00000000000;2880.00000000000;2862.00000000000;2888.00000000000;2863.00000000000;2883.00000000000;2870.00000000000;2865.00000000000;2864.00000000000;2844.00000000000;2866.00000000000;2854.00000000000;2864.00000000000;2859.00000000000;2864.00000000000;2881.00000000000;2890.00000000000;2887.00000000000;2906.00000000000;2915.00000000000;2910.00000000000;2892.00000000000;2907.00000000000;2907.00000000000;2961.00000000000;3036.00000000000;3075.00000000000;3139.00000000000;3220.00000000000;3290.00000000000;3273.00000000000;3154.00000000000;3154.00000000000;3151.00000000000;3195.00000000000;3239.00000000000;3215.00000000000;3001.00000000000;2955.00000000000;2771.00000000000;2632.00000000000;2407.00000000000;2295.00000000000;2231.00000000000;2025.00000000000;1834.00000000000;1616.00000000000;1356.00000000000;1189.00000000000;1095.00000000000;1132.00000000000;1202.00000000000;1180.00000000000;1199.00000000000;1359.00000000000;1479.00000000000;1635.00000000000;1754.00000000000;1943.00000000000;2152.00000000000;2240.00000000000;2126.00000000000;2149.00000000000;2181.00000000000;2531.00000000000;3437.00000000000;4017.00000000000;3214.00000000000;2591.00000000000;2998.00000000000;3408.00000000000;3525.00000000000;3438.00000000000;3281.00000000000;3143.00000000000;3137.00000000000;3141.00000000000;3087.00000000000;3004.00000000000;2904.00000000000;2785.00000000000;2779.00000000000;2711.00000000000;2755.00000000000;2786.00000000000;2635.00000000000;2554.00000000000;2635.00000000000;2658.00000000000;2698.00000000000;2617.00000000000;2530.00000000000;2561.00000000000;2518.00000000000;2436.00000000000;2611.00000000000;2640.00000000000;2615.00000000000;2762.00000000000;2911.00000000000;3099.00000000000;3246.00000000000;3257.00000000000;3234.00000000000;3262.00000000000;3283.00000000000;3343.00000000000;3406.00000000000;3394.00000000000;3287.00000000000;3171.00000000000;3086.00000000000;3058.00000000000;3044.00000000000;2997.00000000000;2966.00000000000;2942.00000000000;2915.00000000000;2933.00000000000;2896.00000000000;2882.00000000000;2907.00000000000;2908.00000000000;2873.00000000000;2833.00000000000;2824.00000000000;2860.00000000000;2825.00000000000;2835.00000000000;2823.00000000000;2807.00000000000;2798.00000000000;2812.00000000000;2807.00000000000;2839.00000000000;2870.00000000000;2889.00000000000;2879.00000000000;2896.00000000000;2862.00000000000;2863.00000000000
Accel Y : 2183.00000000000;2158.00000000000;2171.00000000000;2166.00000000000;2168.00000000000;2187.00000000000;2184.00000000000;2195.00000000000;2181.00000000000;2212.00000000000;2175.00000000000;2179.00000000000;2159.00000000000;2187.00000000000;2171.00000000000;2177.00000000000;2171.00000000000;2168.00000000000;2170.00000000000;2157.00000000000;2174.00000000000;2164.00000000000;2175.00000000000;2169.00000000000;2191.00000000000;2168.00000000000;2179.00000000000;2179.00000000000;2162.00000000000;2165.00000000000;2155.00000000000;2170.00000000000;2161.00000000000;2167.00000000000;2177.00000000000;2163.00000000000;2204.00000000000;2166.00000000000;2163.00000000000;2133.00000000000;2093.00000000000;1998.00000000000;1936.00000000000;1870.00000000000;1826.00000000000;1763.00000000000;1660.00000000000;1533.00000000000;1498.00000000000;1453.00000000000;1403.00000000000;1347.00000000000;1362.00000000000;1325.00000000000;1286.00000000000;1205.00000000000;1126.00000000000;1031.00000000000;917.000000000000;894.000000000000;947.000000000000;1047.00000000000;1156.00000000000;1247.00000000000;1344.00000000000;1538.00000000000;1635.00000000000;1806.00000000000;2029.00000000000;2233.00000000000;2396.00000000000;2659.00000000000;2967.00000000000;3290.00000000000;3205.00000000000;2988.00000000000;2480.00000000000;2095.00000000000;2189.00000000000;2186.00000000000;2233.00000000000;2234.00000000000;2271.00000000000;2243.00000000000;2194.00000000000;2206.00000000000;2219.00000000000;2247.00000000000;2263.00000000000;2214.00000000000;2263.00000000000;2237.00000000000;2223.00000000000;2322.00000000000;2358.00000000000;2355.00000000000;2215.00000000000;2229.00000000000;2282.00000000000;2311.00000000000;2161.00000000000;2177.00000000000;2244.00000000000;2167.00000000000;1970.00000000000;1772.00000000000;1636.00000000000;1643.00000000000;1728.00000000000;1689.00000000000;1729.00000000000;1796.00000000000;1808.00000000000;1827.00000000000;1894.00000000000;1937.00000000000;1937.00000000000;1968.00000000000;1973.00000000000;1968.00000000000;2039.00000000000;2025.00000000000;2042.00000000000;2075.00000000000;2077.00000000000;2087.00000000000;2120.00000000000;2156.00000000000;2155.00000000000;2165.00000000000;2161.00000000000;2175.00000000000;2165.00000000000;2153.00000000000;2134.00000000000;2168.00000000000;2181.00000000000;2150.00000000000;2137.00000000000;2125.00000000000;2117.00000000000;2102.00000000000;2122.00000000000;2107.00000000000;2092.00000000000;2111.00000000000;2106.00000000000;2104.00000000000;2099.00000000000;2093.00000000000
Accel Z : 1782.00000000000;1768.00000000000;1792.00000000000;1796.00000000000;1805.00000000000;1793.00000000000;1789.00000000000;1786.00000000000;1795.00000000000;1808.00000000000;1790.00000000000;1798.00000000000;1787.00000000000;1787.00000000000;1794.00000000000;1805.00000000000;1766.00000000000;1795.00000000000;1791.00000000000;1814.00000000000;1790.00000000000;1806.00000000000;1785.00000000000;1809.00000000000;1805.00000000000;1793.00000000000;1806.00000000000;1787.00000000000;1788.00000000000;1802.00000000000;1811.00000000000;1815.00000000000;1790.00000000000;1793.00000000000;1794.00000000000;1791.00000000000;1801.00000000000;1842.00000000000;1866.00000000000;1867.00000000000;1894.00000000000;1909.00000000000;1905.00000000000;1916.00000000000;1951.00000000000;1964.00000000000;1922.00000000000;1924.00000000000;1973.00000000000;1930.00000000000;1929.00000000000;1942.00000000000;1943.00000000000;1891.00000000000;1844.00000000000;1844.00000000000;1821.00000000000;1797.00000000000;1780.00000000000;1803.00000000000;1782.00000000000;1738.00000000000;1746.00000000000;1679.00000000000;1646.00000000000;1708.00000000000;1722.00000000000;1696.00000000000;1670.00000000000;1693.00000000000;1639.00000000000;1596.00000000000;1315.00000000000;1793.00000000000;2202.00000000000;2146.00000000000;1695.00000000000;1724.00000000000;2137.00000000000;2295.00000000000;2246.00000000000;2192.00000000000;2211.00000000000;2175.00000000000;2177.00000000000;2252.00000000000;2195.00000000000;2115.00000000000;2039.00000000000;2017.00000000000;1984.00000000000;1952.00000000000;1900.00000000000;1868.00000000000;1741.00000000000;1769.00000000000;1848.00000000000;1815.00000000000;1759.00000000000;1734.00000000000;1788.00000000000;1738.00000000000;1685.00000000000;1643.00000000000;1674.00000000000;1746.00000000000;1761.00000000000;1769.00000000000;1731.00000000000;1724.00000000000;1777.00000000000;1829.00000000000;1832.00000000000;1812.00000000000;1849.00000000000;1798.00000000000;1785.00000000000;1802.00000000000;1846.00000000000;1834.00000000000;1849.00000000000;1793.00000000000;1795.00000000000;1774.00000000000;1744.00000000000;1738.00000000000;1735.00000000000;1707.00000000000;1695.00000000000;1712.00000000000;1689.00000000000;1688.00000000000;1685.00000000000;1699.00000000000;1698.00000000000;1733.00000000000;1700.00000000000;1691.00000000000;1716.00000000000;1749.00000000000;1770.00000000000;1760.00000000000;1784.00000000000;1779.00000000000;1777.00000000000;1797.00000000000;1828.00000000000;1839.00000000000;1853.00000000000;1848.00000000000
Gyro X : 2875.00000000000;2899.00000000000;2869.00000000000;2888.00000000000;2872.00000000000;2871.00000000000;2877.00000000000;2859.00000000000;2872.00000000000;2871.00000000000;2880.00000000000;2862.00000000000;2888.00000000000;2863.00000000000;2883.00000000000;2870.00000000000;2865.00000000000;2864.00000000000;2844.00000000000;2866.00000000000;2854.00000000000;2864.00000000000;2859.00000000000;2864.00000000000;2881.00000000000;2890.00000000000;2887.00000000000;2906.00000000000;2915.00000000000;2910.00000000000;2892.00000000000;2907.00000000000;2907.00000000000;2961.00000000000;3036.00000000000;3075.00000000000;3139.00000000000;3220.00000000000;3290.00000000000;3273.00000000000;3154.00000000000;3154.00000000000;3151.00000000000;3195.00000000000;3239.00000000000;3215.00000000000;3001.00000000000;2955.00000000000;2771.00000000000;2632.00000000000;2407.00000000000;2295.00000000000;2231.00000000000;2025.00000000000;1834.00000000000;1616.00000000000;1356.00000000000;1189.00000000000;1095.00000000000;1132.00000000000;1202.00000000000;1180.00000000000;1199.00000000000;1359.00000000000;1479.00000000000;1635.00000000000;1754.00000000000;1943.00000000000;2152.00000000000;2240.00000000000;2126.00000000000;2149.00000000000;2181.00000000000;2531.00000000000;3437.00000000000;4017.00000000000;3214.00000000000;2591.00000000000;2998.00000000000;3408.00000000000;3525.00000000000;3438.00000000000;3281.00000000000;3143.00000000000;3137.00000000000;3141.00000000000;3087.00000000000;3004.00000000000;2904.00000000000;2785.00000000000;2779.00000000000;2711.00000000000;2755.00000000000;2786.00000000000;2635.00000000000;2554.00000000000;2635.00000000000;2658.00000000000;2698.00000000000;2617.00000000000;2530.00000000000;2561.00000000000;2518.00000000000;2436.00000000000;2611.00000000000;2640.00000000000;2615.00000000000;2762.00000000000;2911.00000000000;3099.00000000000;3246.00000000000;3257.00000000000;3234.00000000000;3262.00000000000;3283.00000000000;3343.00000000000;3406.00000000000;3394.00000000000;3287.00000000000;3171.00000000000;3086.00000000000;3058.00000000000;3044.00000000000;2997.00000000000;2966.00000000000;2942.00000000000;2915.00000000000;2933.00000000000;2896.00000000000;2882.00000000000;2907.00000000000;2908.00000000000;2873.00000000000;2833.00000000000;2824.00000000000;2860.00000000000;2825.00000000000;2835.00000000000;2823.00000000000;2807.00000000000;2798.00000000000;2812.00000000000;2807.00000000000;2839.00000000000;2870.00000000000;2889.00000000000;2879.00000000000;2896.00000000000;2862.00000000000;2863.00000000000
Gyro Y : 2183.00000000000;2158.00000000000;2171.00000000000;2166.00000000000;2168.00000000000;2187.00000000000;2184.00000000000;2195.00000000000;2181.00000000000;2212.00000000000;2175.00000000000;2179.00000000000;2159.00000000000;2187.00000000000;2171.00000000000;2177.00000000000;2171.00000000000;2168.00000000000;2170.00000000000;2157.00000000000;2174.00000000000;2164.00000000000;2175.00000000000;2169.00000000000;2191.00000000000;2168.00000000000;2179.00000000000;2179.00000000000;2162.00000000000;2165.00000000000;2155.00000000000;2170.00000000000;2161.00000000000;2167.00000000000;2177.00000000000;2163.00000000000;2204.00000000000;2166.00000000000;2163.00000000000;2133.00000000000;2093.00000000000;1998.00000000000;1936.00000000000;1870.00000000000;1826.00000000000;1763.00000000000;1660.00000000000;1533.00000000000;1498.00000000000;1453.00000000000;1403.00000000000;1347.00000000000;1362.00000000000;1325.00000000000;1286.00000000000;1205.00000000000;1126.00000000000;1031.00000000000;917.000000000000;894.000000000000;947.000000000000;1047.00000000000;1156.00000000000;1247.00000000000;1344.00000000000;1538.00000000000;1635.00000000000;1806.00000000000;2029.00000000000;2233.00000000000;2396.00000000000;2659.00000000000;2967.00000000000;3290.00000000000;3205.00000000000;2988.00000000000;2480.00000000000;2095.00000000000;2189.00000000000;2186.00000000000;2233.00000000000;2234.00000000000;2271.00000000000;2243.00000000000;2194.00000000000;2206.00000000000;2219.00000000000;2247.00000000000;2263.00000000000;2214.00000000000;2263.00000000000;2237.00000000000;2223.00000000000;2322.00000000000;2358.00000000000;2355.00000000000;2215.00000000000;2229.00000000000;2282.00000000000;2311.00000000000;2161.00000000000;2177.00000000000;2244.00000000000;2167.00000000000;1970.00000000000;1772.00000000000;1636.00000000000;1643.00000000000;1728.00000000000;1689.00000000000;1729.00000000000;1796.00000000000;1808.00000000000;1827.00000000000;1894.00000000000;1937.00000000000;1937.00000000000;1968.00000000000;1973.00000000000;1968.00000000000;2039.00000000000;2025.00000000000;2042.00000000000;2075.00000000000;2077.00000000000;2087.00000000000;2120.00000000000;2156.00000000000;2155.00000000000;2165.00000000000;2161.00000000000;2175.00000000000;2165.00000000000;2153.00000000000;2134.00000000000;2168.00000000000;2181.00000000000;2150.00000000000;2137.00000000000;2125.00000000000;2117.00000000000;2102.00000000000;2122.00000000000;2107.00000000000;2092.00000000000;2111.00000000000;2106.00000000000;2104.00000000000;2099.00000000000;2093.00000000000
Gyro Z : 1782.00000000000;1768.00000000000;1792.00000000000;1796.00000000000;1805.00000000000;1793.00000000000;1789.00000000000;1786.00000000000;1795.00000000000;1808.00000000000;1790.00000000000;1798.00000000000;1787.00000000000;1787.00000000000;1794.00000000000;1805.00000000000;1766.00000000000;1795.00000000000;1791.00000000000;1814.00000000000;1790.00000000000;1806.00000000000;1785.00000000000;1809.00000000000;1805.00000000000;1793.00000000000;1806.00000000000;1787.00000000000;1788.00000000000;1802.00000000000;1811.00000000000;1815.00000000000;1790.00000000000;1793.00000000000;1794.00000000000;1791.00000000000;1801.00000000000;1842.00000000000;1866.00000000000;1867.00000000000;1894.00000000000;1909.00000000000;1905.00000000000;1916.00000000000;1951.00000000000;1964.00000000000;1922.00000000000;1924.00000000000;1973.00000000000;1930.00000000000;1929.00000000000;1942.00000000000;1943.00000000000;1891.00000000000;1844.00000000000;1844.00000000000;1821.00000000000;1797.00000000000;1780.00000000000;1803.00000000000;1782.00000000000;1738.00000000000;1746.00000000000;1679.00000000000;1646.00000000000;1708.00000000000;1722.00000000000;1696.00000000000;1670.00000000000;1693.00000000000;1639.00000000000;1596.00000000000;1315.00000000000;1793.00000000000;2202.00000000000;2146.00000000000;1695.00000000000;1724.00000000000;2137.00000000000;2295.00000000000;2246.00000000000;2192.00000000000;2211.00000000000;2175.00000000000;2177.00000000000;2252.00000000000;2195.00000000000;2115.00000000000;2039.00000000000;2017.00000000000;1984.00000000000;1952.00000000000;1900.00000000000;1868.00000000000;1741.00000000000;1769.00000000000;1848.00000000000;1815.00000000000;1759.00000000000;1734.00000000000;1788.00000000000;1738.00000000000;1685.00000000000;1643.00000000000;1674.00000000000;1746.00000000000;1761.00000000000;1769.00000000000;1731.00000000000;1724.00000000000;1777.00000000000;1829.00000000000;1832.00000000000;1812.00000000000;1849.00000000000;1798.00000000000;1785.00000000000;1802.00000000000;1846.00000000000;1834.00000000000;1849.00000000000;1793.00000000000;1795.00000000000;1774.00000000000;1744.00000000000;1738.00000000000;1735.00000000000;1707.00000000000;1695.00000000000;1712.00000000000;1689.00000000000;1688.00000000000;1685.00000000000;1699.00000000000;1698.00000000000;1733.00000000000;1700.00000000000;1691.00000000000;1716.00000000000;1749.00000000000;1770.00000000000;1760.00000000000;1784.00000000000;1779.00000000000;1777.00000000000;1797.00000000000;1828.00000000000;1839.00000000000;1853.00000000000;1848.00000000000
