COMMAND 5 SAMPLE 1
Accel X : 2850.00000000000;2816.00000000000;2841.00000000000;2832.00000000000;2814.00000000000;2873.00000000000;2818.00000000000;2798.00000000000;2768.00000000000;2703.00000000000;2749.00000000000;2831.00000000000;2877.00000000000;2918.00000000000;2872.00000000000;2837.00000000000;2852.00000000000;2861.00000000000;2830.00000000000;2859.00000000000;2862.00000000000;2854.00000000000;2865.00000000000;2863.00000000000;2840.00000000000;2820.00000000000;2826.00000000000;2819.00000000000;2835.00000000000;2827.00000000000;2815.00000000000;2830.00000000000;2825.00000000000;2836.00000000000;2844.00000000000;2824.00000000000;2839.00000000000;2838.00000000000;2816.00000000000;2837.00000000000;2827.00000000000;2824.00000000000;2813.00000000000;2818.00000000000;2802.00000000000;2829.00000000000;2810.00000000000;2807.00000000000;2819.00000000000;2805.00000000000;2804.00000000000;2816.00000000000;2827.00000000000;2809.00000000000;2827.00000000000;2827.00000000000;2840.00000000000;2835.00000000000;2829.00000000000;2838.00000000000;2836.00000000000;2818.00000000000;2803.00000000000;2814.00000000000;2812.00000000000;2834.00000000000;2800.00000000000;2803.00000000000;2806.00000000000;2856.00000000000;2793.00000000000;2762.00000000000;2787.00000000000;2855.00000000000;2862.00000000000;2879.00000000000;2854.00000000000;2844.00000000000;2861.00000000000;2821.00000000000;2829.00000000000;2816.00000000000;2833.00000000000;2782.00000000000;2759.00000000000;2763.00000000000;2744.00000000000;2803.00000000000;2795.00000000000;2785.00000000000;2805.00000000000;2805.00000000000;2843.00000000000;2843.00000000000;2824.00000000000;2841.00000000000;2819.00000000000;2837.00000000000;2839.00000000000;2815.00000000000;2842.00000000000;2831.00000000000;2819.00000000000;2812.00000000000;2800.00000000000;2806.00000000000;2783.00000000000;2822.00000000000;2811.00000000000;2796.00000000000;2832.00000000000;2822.00000000000;2826.00000000000;2824.00000000000;2827.00000000000;2826.00000000000;2821.00000000000;2839.00000000000;2834.00000000000;2831.00000000000;2848.00000000000;2815.00000000000;2835.00000000000;2842.00000000000;2835.00000000000;2843.00000000000;2831.00000000000;2817.00000000000;2813.00000000000;2820.00000000000;2830.00000000000;2831.00000000000;2831.00000000000;2828.00000000000;2818.00000000000;2819.00000000000;2824.00000000000;2820.00000000000;2790.00000000000;2792.00000000000;2830.00000000000;2816.00000000000;2816.00000000000;2809.00000000000;2809.00000000000;2831.00000000000;2838.00000000000;2810.00000000000;2830.00000000000;2832.00000000000
Accel Y : 2214.00000000000;2215.00000000000;2206.00000000000;2216.00000000000;2206.00000000000;2222.00000000000;2215.00000000000;2196.00000000000;2212.00000000000;2237.00000000000;2269.00000000000;2293.00000000000;2277.00000000000;2261.00000000000;2281.00000000000;2251.00000000000;2223.00000000000;2240.00000000000;2259.00000000000;2262.00000000000;2237.00000000000;2224.00000000000;2274.00000000000;2261.00000000000;2244.00000000000;2264.00000000000;2268.00000000000;2272.00000000000;2273.00000000000;2287.00000000000;2314.00000000000;2281.00000000000;2289.00000000000;2276.00000000000;2262.00000000000;2279.00000000000;2271.00000000000;2291.00000000000;2301.00000000000;2272.00000000000;2282.00000000000;2277.00000000000;2283.00000000000;2281.00000000000;2291.00000000000;2291.00000000000;2278.00000000000;2299.00000000000;2299.00000000000;2315.00000000000;2302.00000000000;2310.00000000000;2283.00000000000;2273.00000000000;2293.00000000000;2282.00000000000;2285.00000000000;2281.00000000000;2289.00000000000;2281.00000000000;2282.00000000000;2289.00000000000;2283.00000000000;2303.00000000000;2304.00000000000;2301.00000000000;2292.00000000000;2291.00000000000;2297.00000000000;2279.00000000000;2298.00000000000;2299.00000000000;2276.00000000000;2283.00000000000;2279.00000000000;2285.00000000000;2299.00000000000;2297.00000000000;2289.00000000000;2318.00000000000;2316.00000000000;2332.00000000000;2325.00000000000;2308.00000000000;2318.00000000000;2310.00000000000;2305.00000000000;2308.00000000000;2311.00000000000;2319.00000000000;2294.00000000000;2309.00000000000;2316.00000000000;2307.00000000000;2303.00000000000;2327.00000000000;2289.00000000000;2311.00000000000;2316.00000000000;2306.00000000000;2328.00000000000;2312.00000000000;2317.00000000000;2310.00000000000;2323.00000000000;2342.00000000000;2319.00000000000;2325.00000000000;2345.00000000000;2335.00000000000;2323.00000000000;2303.00000000000;2315.00000000000;2313.00000000000;2315.00000000000;2308.00000000000;2300.00000000000;2309.00000000000;2302.00000000000;2304.00000000000;2305.00000000000;2329.00000000000;2329.00000000000;2317.00000000000;2333.00000000000;2325.00000000000;2338.00000000000;2330.00000000000;2302.00000000000;2313.00000000000;2330.00000000000;2298.00000000000;2326.00000000000;2306.00000000000;2300.00000000000;2296.00000000000;2308.00000000000;2310.00000000000;2309.00000000000;2299.00000000000;2297.00000000000;2305.00000000000;2316.00000000000;2327.00000000000;2290.00000000000;2288.00000000000;2294.00000000000;2296.00000000000;2279.00000000000;2283.00000000000
Accel Z : 1940.00000000000;1945.00000000000;1943.00000000000;1941.00000000000;1922.00000000000;1949.00000000000;1911.00000000000;1924.00000000000;1915.00000000000;1858.00000000000;1905.00000000000;1903.00000000000;1929.00000000000;1891.00000000000;1903.00000000000;1857.00000000000;1916.00000000000;1921.00000000000;1933.00000000000;1925.00000000000;1906.00000000000;1905.00000000000;1926.00000000000;1906.00000000000;1912.00000000000;1883.00000000000;1901.00000000000;1895.00000000000;1866.00000000000;1871.00000000000;1863.00000000000;1860.00000000000;1860.00000000000;1866.00000000000;1868.00000000000;1886.00000000000;1875.00000000000;1900.00000000000;1893.00000000000;1910.00000000000;1893.00000000000;1907.00000000000;1899.00000000000;1902.00000000000;1896.00000000000;1893.00000000000;1912.00000000000;1897.00000000000;1916.00000000000;1904.00000000000;1902.00000000000;1898.00000000000;1884.00000000000;1909.00000000000;1917.00000000000;1894.00000000000;1900.00000000000;1904.00000000000;1913.00000000000;1918.00000000000;1912.00000000000;1937.00000000000;1921.00000000000;1907.00000000000;1902.00000000000;1878.00000000000;1910.00000000000;1901.00000000000;1873.00000000000;1904.00000000000;1948.00000000000;1918.00000000000;1887.00000000000;1914.00000000000;1928.00000000000;1953.00000000000;1962.00000000000;1943.00000000000;1932.00000000000;1905.00000000000;1908.00000000000;1903.00000000000;1918.00000000000;1907.00000000000;1898.00000000000;1889.00000000000;1879.00000000000;1899.00000000000;1896.00000000000;1935.00000000000;1919.00000000000;1910.00000000000;1904.00000000000;1907.00000000000;1918.00000000000;1894.00000000000;1917.00000000000;1915.00000000000;1898.00000000000;1915.00000000000;1932.00000000000;1918.00000000000;1926.00000000000;1908.00000000000;1907.00000000000;1914.00000000000;1917.00000000000;1905.00000000000;1897.00000000000;1903.00000000000;1906.00000000000;1912.00000000000;1885.00000000000;1905.00000000000;1902.00000000000;1888.00000000000;1908.00000000000;1895.00000000000;1907.00000000000;1895.00000000000;1887.00000000000;1885.00000000000;1894.00000000000;1896.00000000000;1905.00000000000;1887.00000000000;1902.00000000000;1922.00000000000;1914.00000000000;1905.00000000000;1884.00000000000;1902.00000000000;1906.00000000000;1900.00000000000;1913.00000000000;1921.00000000000;1911.00000000000;1893.00000000000;1905.00000000000;1912.00000000000;1889.00000000000;1904.00000000000;1894.00000000000;1890.00000000000;1902.00000000000;1907.00000000000;1895.00000000000;1894.00000000000;1895.00000000000;1886.00000000000
Gyro X : 2850.00000000000;2816.00000000000;2841.00000000000;2832.00000000000;2814.00000000000;2873.00000000000;2818.00000000000;2798.00000000000;2768.00000000000;2703.00000000000;2749.00000000000;2831.00000000000;2877.00000000000;2918.00000000000;2872.00000000000;2837.00000000000;2852.00000000000;2861.00000000000;2830.00000000000;2859.00000000000;2862.00000000000;2854.00000000000;2865.00000000000;2863.00000000000;2840.00000000000;2820.00000000000;2826.00000000000;2819.00000000000;2835.00000000000;2827.00000000000;2815.00000000000;2830.00000000000;2825.00000000000;2836.00000000000;2844.00000000000;2824.00000000000;2839.00000000000;2838.00000000000;2816.00000000000;2837.00000000000;2827.00000000000;2824.00000000000;2813.00000000000;2818.00000000000;2802.00000000000;2829.00000000000;2810.00000000000;2807.00000000000;2819.00000000000;2805.00000000000;2804.00000000000;2816.00000000000;2827.00000000000;2809.00000000000;2827.00000000000;2827.00000000000;2840.00000000000;2835.00000000000;2829.00000000000;2838.00000000000;2836.00000000000;2818.00000000000;2803.00000000000;2814.00000000000;2812.00000000000;2834.00000000000;2800.00000000000;2803.00000000000;2806.00000000000;2856.00000000000;2793.00000000000;2762.00000000000;2787.00000000000;2855.00000000000;2862.00000000000;2879.00000000000;2854.00000000000;2844.00000000000;2861.00000000000;2821.00000000000;2829.00000000000;2816.00000000000;2833.00000000000;2782.00000000000;2759.00000000000;2763.00000000000;2744.00000000000;2803.00000000000;2795.00000000000;2785.00000000000;2805.00000000000;2805.00000000000;2843.00000000000;2843.00000000000;2824.00000000000;2841.00000000000;2819.00000000000;2837.00000000000;2839.00000000000;2815.00000000000;2842.00000000000;2831.00000000000;2819.00000000000;2812.00000000000;2800.00000000000;2806.00000000000;2783.00000000000;2822.00000000000;2811.00000000000;2796.00000000000;2832.00000000000;2822.00000000000;2826.00000000000;2824.00000000000;2827.00000000000;2826.00000000000;2821.00000000000;2839.00000000000;2834.00000000000;2831.00000000000;2848.00000000000;2815.00000000000;2835.00000000000;2842.00000000000;2835.00000000000;2843.00000000000;2831.00000000000;2817.00000000000;2813.00000000000;2820.00000000000;2830.00000000000;2831.00000000000;2831.00000000000;2828.00000000000;2818.00000000000;2819.00000000000;2824.00000000000;2820.00000000000;2790.00000000000;2792.00000000000;2830.00000000000;2816.00000000000;2816.00000000000;2809.00000000000;2809.00000000000;2831.00000000000;2838.00000000000;2810.00000000000;2830.00000000000;2832.00000000000
Gyro Y : 2214.00000000000;2215.00000000000;2206.00000000000;2216.00000000000;2206.00000000000;2222.00000000000;2215.00000000000;2196.00000000000;2212.00000000000;2237.00000000000;2269.00000000000;2293.00000000000;2277.00000000000;2261.00000000000;2281.00000000000;2251.00000000000;2223.00000000000;2240.00000000000;2259.00000000000;2262.00000000000;2237.00000000000;2224.00000000000;2274.00000000000;2261.00000000000;2244.00000000000;2264.00000000000;2268.00000000000;2272.00000000000;2273.00000000000;2287.00000000000;2314.00000000000;2281.00000000000;2289.00000000000;2276.00000000000;2262.00000000000;2279.00000000000;2271.00000000000;2291.00000000000;2301.00000000000;2272.00000000000;2282.00000000000;2277.00000000000;2283.00000000000;2281.00000000000;2291.00000000000;2291.00000000000;2278.00000000000;2299.00000000000;2299.00000000000;2315.00000000000;2302.00000000000;2310.00000000000;2283.00000000000;2273.00000000000;2293.00000000000;2282.00000000000;2285.00000000000;2281.00000000000;2289.00000000000;2281.00000000000;2282.00000000000;2289.00000000000;2283.00000000000;2303.00000000000;2304.00000000000;2301.00000000000;2292.00000000000;2291.00000000000;2297.00000000000;2279.00000000000;2298.00000000000;2299.00000000000;2276.00000000000;2283.00000000000;2279.00000000000;2285.00000000000;2299.00000000000;2297.00000000000;2289.00000000000;2318.00000000000;2316.00000000000;2332.00000000000;2325.00000000000;2308.00000000000;2318.00000000000;2310.00000000000;2305.00000000000;2308.00000000000;2311.00000000000;2319.00000000000;2294.00000000000;2309.00000000000;2316.00000000000;2307.00000000000;2303.00000000000;2327.00000000000;2289.00000000000;2311.00000000000;2316.00000000000;2306.00000000000;2328.00000000000;2312.00000000000;2317.00000000000;2310.00000000000;2323.00000000000;2342.00000000000;2319.00000000000;2325.00000000000;2345.00000000000;2335.00000000000;2323.00000000000;2303.00000000000;2315.00000000000;2313.00000000000;2315.00000000000;2308.00000000000;2300.00000000000;2309.00000000000;2302.00000000000;2304.00000000000;2305.00000000000;2329.00000000000;2329.00000000000;2317.00000000000;2333.00000000000;2325.00000000000;2338.00000000000;2330.00000000000;2302.00000000000;2313.00000000000;2330.00000000000;2298.00000000000;2326.00000000000;2306.00000000000;2300.00000000000;2296.00000000000;2308.00000000000;2310.00000000000;2309.00000000000;2299.00000000000;2297.00000000000;2305.00000000000;2316.00000000000;2327.00000000000;2290.00000000000;2288.00000000000;2294.00000000000;2296.00000000000;2279.00000000000;2283.00000000000
Gyro Z : 1940.00000000000;1945.00000000000;1943.00000000000;1941.00000000000;1922.00000000000;1949.00000000000;1911.00000000000;1924.00000000000;1915.00000000000;1858.00000000000;1905.00000000000;1903.00000000000;1929.00000000000;1891.00000000000;1903.00000000000;1857.00000000000;1916.00000000000;1921.00000000000;1933.00000000000;1925.00000000000;1906.00000000000;1905.00000000000;1926.00000000000;1906.00000000000;1912.00000000000;1883.00000000000;1901.00000000000;1895.00000000000;1866.00000000000;1871.00000000000;1863.00000000000;1860.00000000000;1860.00000000000;1866.00000000000;1868.00000000000;1886.00000000000;1875.00000000000;1900.00000000000;1893.00000000000;1910.00000000000;1893.00000000000;1907.00000000000;1899.00000000000;1902.00000000000;1896.00000000000;1893.00000000000;1912.00000000000;1897.00000000000;1916.00000000000;1904.00000000000;1902.00000000000;1898.00000000000;1884.00000000000;1909.00000000000;1917.00000000000;1894.00000000000;1900.00000000000;1904.00000000000;1913.00000000000;1918.00000000000;1912.00000000000;1937.00000000000;1921.00000000000;1907.00000000000;1902.00000000000;1878.00000000000;1910.00000000000;1901.00000000000;1873.00000000000;1904.00000000000;1948.00000000000;1918.00000000000;1887.00000000000;1914.00000000000;1928.00000000000;1953.00000000000;1962.00000000000;1943.00000000000;1932.00000000000;1905.00000000000;1908.00000000000;1903.00000000000;1918.00000000000;1907.00000000000;1898.00000000000;1889.00000000000;1879.00000000000;1899.00000000000;1896.00000000000;1935.00000000000;1919.00000000000;1910.00000000000;1904.00000000000;1907.00000000000;1918.00000000000;1894.00000000000;1917.00000000000;1915.00000000000;1898.00000000000;1915.00000000000;1932.00000000000;1918.00000000000;1926.00000000000;1908.00000000000;1907.00000000000;1914.00000000000;1917.00000000000;1905.00000000000;1897.00000000000;1903.00000000000;1906.00000000000;1912.00000000000;1885.00000000000;1905.00000000000;1902.00000000000;1888.00000000000;1908.00000000000;1895.00000000000;1907.00000000000;1895.00000000000;1887.00000000000;1885.00000000000;1894.00000000000;1896.00000000000;1905.00000000000;1887.00000000000;1902.00000000000;1922.00000000000;1914.00000000000;1905.00000000000;1884.00000000000;1902.00000000000;1906.00000000000;1900.00000000000;1913.00000000000;1921.00000000000;1911.00000000000;1893.00000000000;1905.00000000000;1912.00000000000;1889.00000000000;1904.00000000000;1894.00000000000;1890.00000000000;1902.00000000000;1907.00000000000;1895.00000000000;1894.00000000000;1895.00000000000;1886.00000000000
