COMMAND 4 SAMPLE 1
Accel X : 2795.00000000000;2788.00000000000;2804.00000000000;2806.00000000000;2800.00000000000;2803.00000000000;2806.00000000000;2815.00000000000;2830.00000000000;2803.00000000000;2802.00000000000;2803.00000000000;2804.00000000000;2797.00000000000;2811.00000000000;2789.00000000000;2803.00000000000;2819.00000000000;2802.00000000000;2791.00000000000;2806.00000000000;2809.00000000000;2828.00000000000;2792.00000000000;2808.00000000000;2808.00000000000;2795.00000000000;2814.00000000000;2821.00000000000;2807.00000000000;2812.00000000000;2794.00000000000;2777.00000000000;2786.00000000000;2773.00000000000;2766.00000000000;2722.00000000000;2760.00000000000;2736.00000000000;2693.00000000000;2644.00000000000;2618.00000000000;2577.00000000000;2476.00000000000;2443.00000000000;2363.00000000000;2343.00000000000;2081.00000000000;2148.00000000000;1985.00000000000;2059.00000000000;2122.00000000000;2147.00000000000;2083.00000000000;2230.00000000000;2281.00000000000;2201.00000000000;2140.00000000000;2040.00000000000;2140.00000000000;2006.00000000000;1914.00000000000;1769.00000000000;1649.00000000000;2021.00000000000;1854.00000000000;1997.00000000000;1774.00000000000;1743.00000000000;1676.00000000000;1722.00000000000;1840.00000000000;1893.00000000000;1870.00000000000;1819.00000000000;1790.00000000000;1789.00000000000;1735.00000000000;1855.00000000000;1912.00000000000;1903.00000000000;1951.00000000000;2039.00000000000;1990.00000000000;2004.00000000000;1899.00000000000;1955.00000000000;2053.00000000000;2111.00000000000;2465.00000000000;2617.00000000000;2588.00000000000;2684.00000000000;2545.00000000000;2704.00000000000;2571.00000000000;2703.00000000000;2506.00000000000;2560.00000000000;2479.00000000000;2347.00000000000;2242.00000000000;2175.00000000000;2304.00000000000;2429.00000000000;2369.00000000000;2337.00000000000;2393.00000000000;2478.00000000000;2564.00000000000;2605.00000000000;2611.00000000000;2674.00000000000;2731.00000000000;2722.00000000000;2736.00000000000;2763.00000000000;2787.00000000000;2832.00000000000;2857.00000000000;2852.00000000000;2804.00000000000;2782.00000000000;2812.00000000000;2808.00000000000;2820.00000000000;2837.00000000000;2795.00000000000;2806.00000000000;2803.00000000000;2829.00000000000;2801.00000000000;2812.00000000000;2831.00000000000;2807.00000000000;2819.00000000000;2827.00000000000;2848.00000000000;2824.00000000000;2807.00000000000;2824.00000000000;2819.00000000000;2837.00000000000;2841.00000000000;2823.00000000000;2798.00000000000;2800.00000000000;2794.00000000000;2801.00000000000;2826.00000000000
Accel Y : 1745.00000000000;1768.00000000000;1772.00000000000;1766.00000000000;1746.00000000000;1791.00000000000;1767.00000000000;1752.00000000000;1745.00000000000;1750.00000000000;1761.00000000000;1761.00000000000;1740.00000000000;1749.00000000000;1757.00000000000;1753.00000000000;1749.00000000000;1751.00000000000;1759.00000000000;1746.00000000000;1766.00000000000;1750.00000000000;1767.00000000000;1756.00000000000;1743.00000000000;1746.00000000000;1771.00000000000;1765.00000000000;1753.00000000000;1744.00000000000;1746.00000000000;1750.00000000000;1747.00000000000;1736.00000000000;1752.00000000000;1732.00000000000;1743.00000000000;1769.00000000000;1770.00000000000;1790.00000000000;1782.00000000000;1764.00000000000;1802.00000000000;1807.00000000000;1798.00000000000;1864.00000000000;1945.00000000000;1960.00000000000;2036.00000000000;2189.00000000000;2371.00000000000;2545.00000000000;2754.00000000000;2934.00000000000;3170.00000000000;3493.00000000000;3807.00000000000;3876.00000000000;3964.00000000000;3871.00000000000;3737.00000000000;3622.00000000000;3569.00000000000;3566.00000000000;3509.00000000000;3479.00000000000;3399.00000000000;3334.00000000000;3228.00000000000;3169.00000000000;3132.00000000000;3079.00000000000;3082.00000000000;3062.00000000000;3087.00000000000;3089.00000000000;3080.00000000000;3109.00000000000;3147.00000000000;3198.00000000000;3230.00000000000;3274.00000000000;3332.00000000000;3415.00000000000;3385.00000000000;3471.00000000000;3440.00000000000;3342.00000000000;3326.00000000000;3450.00000000000;3479.00000000000;3413.00000000000;3410.00000000000;3279.00000000000;3141.00000000000;2989.00000000000;2851.00000000000;2732.00000000000;2551.00000000000;2420.00000000000;2307.00000000000;2164.00000000000;2011.00000000000;1888.00000000000;1875.00000000000;1832.00000000000;1803.00000000000;1727.00000000000;1651.00000000000;1644.00000000000;1651.00000000000;1636.00000000000;1619.00000000000;1603.00000000000;1609.00000000000;1629.00000000000;1616.00000000000;1639.00000000000;1641.00000000000;1649.00000000000;1663.00000000000;1635.00000000000;1672.00000000000;1656.00000000000;1665.00000000000;1681.00000000000;1665.00000000000;1667.00000000000;1700.00000000000;1681.00000000000;1654.00000000000;1692.00000000000;1693.00000000000;1717.00000000000;1700.00000000000;1730.00000000000;1704.00000000000;1716.00000000000;1717.00000000000;1748.00000000000;1722.00000000000;1716.00000000000;1720.00000000000;1726.00000000000;1716.00000000000;1717.00000000000;1725.00000000000;1702.00000000000;1720.00000000000;1721.00000000000
Accel Z : 1908.00000000000;1894.00000000000;1928.00000000000;1925.00000000000;1910.00000000000;1920.00000000000;1913.00000000000;1952.00000000000;1895.00000000000;1913.00000000000;1901.00000000000;1905.00000000000;1926.00000000000;1915.00000000000;1921.00000000000;1930.00000000000;1912.00000000000;1923.00000000000;1922.00000000000;1914.00000000000;1906.00000000000;1919.00000000000;1917.00000000000;1936.00000000000;1904.00000000000;1920.00000000000;1921.00000000000;1917.00000000000;1909.00000000000;1899.00000000000;1905.00000000000;1897.00000000000;1903.00000000000;1911.00000000000;1913.00000000000;1919.00000000000;1925.00000000000;1901.00000000000;1904.00000000000;1921.00000000000;1947.00000000000;1957.00000000000;1955.00000000000;1931.00000000000;1932.00000000000;1898.00000000000;1943.00000000000;1834.00000000000;1919.00000000000;1914.00000000000;1880.00000000000;1936.00000000000;1965.00000000000;1990.00000000000;1980.00000000000;1973.00000000000;1938.00000000000;1701.00000000000;1687.00000000000;1764.00000000000;1673.00000000000;1700.00000000000;1667.00000000000;1858.00000000000;1987.00000000000;1994.00000000000;2118.00000000000;2131.00000000000;2146.00000000000;2168.00000000000;2191.00000000000;2250.00000000000;2291.00000000000;2234.00000000000;2192.00000000000;2132.00000000000;2072.00000000000;2020.00000000000;1949.00000000000;1940.00000000000;1895.00000000000;1855.00000000000;1853.00000000000;1795.00000000000;1841.00000000000;1805.00000000000;1676.00000000000;1647.00000000000;1586.00000000000;1773.00000000000;1726.00000000000;1801.00000000000;1729.00000000000;1700.00000000000;1712.00000000000;1704.00000000000;1805.00000000000;1725.00000000000;1783.00000000000;1756.00000000000;1702.00000000000;1734.00000000000;1765.00000000000;1784.00000000000;1785.00000000000;1806.00000000000;1852.00000000000;1819.00000000000;1812.00000000000;1787.00000000000;1783.00000000000;1819.00000000000;1837.00000000000;1831.00000000000;1847.00000000000;1844.00000000000;1830.00000000000;1792.00000000000;1804.00000000000;1818.00000000000;1778.00000000000;1809.00000000000;1791.00000000000;1795.00000000000;1776.00000000000;1767.00000000000;1760.00000000000;1741.00000000000;1758.00000000000;1755.00000000000;1757.00000000000;1771.00000000000;1778.00000000000;1720.00000000000;1772.00000000000;1764.00000000000;1752.00000000000;1764.00000000000;1771.00000000000;1792.00000000000;1761.00000000000;1775.00000000000;1772.00000000000;1788.00000000000;1777.00000000000;1794.00000000000;1773.00000000000;1779.00000000000;1778.00000000000;1785.00000000000
Gyro X : 2795.00000000000;2788.00000000000;2804.00000000000;2806.00000000000;2800.00000000000;2803.00000000000;2806.00000000000;2815.00000000000;2830.00000000000;2803.00000000000;2802.00000000000;2803.00000000000;2804.00000000000;2797.00000000000;2811.00000000000;2789.00000000000;2803.00000000000;2819.00000000000;2802.00000000000;2791.00000000000;2806.00000000000;2809.00000000000;2828.00000000000;2792.00000000000;2808.00000000000;2808.00000000000;2795.00000000000;2814.00000000000;2821.00000000000;2807.00000000000;2812.00000000000;2794.00000000000;2777.00000000000;2786.00000000000;2773.00000000000;2766.00000000000;2722.00000000000;2760.00000000000;2736.00000000000;2693.00000000000;2644.00000000000;2618.00000000000;2577.00000000000;2476.00000000000;2443.00000000000;2363.00000000000;2343.00000000000;2081.00000000000;2148.00000000000;1985.00000000000;2059.00000000000;2122.00000000000;2147.00000000000;2083.00000000000;2230.00000000000;2281.00000000000;2201.00000000000;2140.00000000000;2040.00000000000;2140.00000000000;2006.00000000000;1914.00000000000;1769.00000000000;1649.00000000000;2021.00000000000;1854.00000000000;1997.00000000000;1774.00000000000;1743.00000000000;1676.00000000000;1722.00000000000;1840.00000000000;1893.00000000000;1870.00000000000;1819.00000000000;1790.00000000000;1789.00000000000;1735.00000000000;1855.00000000000;1912.00000000000;1903.00000000000;1951.00000000000;2039.00000000000;1990.00000000000;2004.00000000000;1899.00000000000;1955.00000000000;2053.00000000000;2111.00000000000;2465.00000000000;2617.00000000000;2588.00000000000;2684.00000000000;2545.00000000000;2704.00000000000;2571.00000000000;2703.00000000000;2506.00000000000;2560.00000000000;2479.00000000000;2347.00000000000;2242.00000000000;2175.00000000000;2304.00000000000;2429.00000000000;2369.00000000000;2337.00000000000;2393.00000000000;2478.00000000000;2564.00000000000;2605.00000000000;2611.00000000000;2674.00000000000;2731.00000000000;2722.00000000000;2736.00000000000;2763.00000000000;2787.00000000000;2832.00000000000;2857.00000000000;2852.00000000000;2804.00000000000;2782.00000000000;2812.00000000000;2808.00000000000;2820.00000000000;2837.00000000000;2795.00000000000;2806.00000000000;2803.00000000000;2829.00000000000;2801.00000000000;2812.00000000000;2831.00000000000;2807.00000000000;2819.00000000000;2827.00000000000;2848.00000000000;2824.00000000000;2807.00000000000;2824.00000000000;2819.00000000000;2837.00000000000;2841.00000000000;2823.00000000000;2798.00000000000;2800.00000000000;2794.00000000000;2801.00000000000;2826.00000000000
Gyro Y : 1745.00000000000;1768.00000000000;1772.00000000000;1766.00000000000;1746.00000000000;1791.00000000000;1767.00000000000;1752.00000000000;1745.00000000000;1750.00000000000;1761.00000000000;1761.00000000000;1740.00000000000;1749.00000000000;1757.00000000000;1753.00000000000;1749.00000000000;1751.00000000000;1759.00000000000;1746.00000000000;1766.00000000000;1750.00000000000;1767.00000000000;1756.00000000000;1743.00000000000;1746.00000000000;1771.00000000000;1765.00000000000;1753.00000000000;1744.00000000000;1746.00000000000;1750.00000000000;1747.00000000000;1736.00000000000;1752.00000000000;1732.00000000000;1743.00000000000;1769.00000000000;1770.00000000000;1790.00000000000;1782.00000000000;1764.00000000000;1802.00000000000;1807.00000000000;1798.00000000000;1864.00000000000;1945.00000000000;1960.00000000000;2036.00000000000;2189.00000000000;2371.00000000000;2545.00000000000;2754.00000000000;2934.00000000000;3170.00000000000;3493.00000000000;3807.00000000000;3876.00000000000;3964.00000000000;3871.00000000000;3737.00000000000;3622.00000000000;3569.00000000000;3566.00000000000;3509.00000000000;3479.00000000000;3399.00000000000;3334.00000000000;3228.00000000000;3169.00000000000;3132.00000000000;3079.00000000000;3082.00000000000;3062.00000000000;3087.00000000000;3089.00000000000;3080.00000000000;3109.00000000000;3147.00000000000;3198.00000000000;3230.00000000000;3274.00000000000;3332.00000000000;3415.00000000000;3385.00000000000;3471.00000000000;3440.00000000000;3342.00000000000;3326.00000000000;3450.00000000000;3479.00000000000;3413.00000000000;3410.00000000000;3279.00000000000;3141.00000000000;2989.00000000000;2851.00000000000;2732.00000000000;2551.00000000000;2420.00000000000;2307.00000000000;2164.00000000000;2011.00000000000;1888.00000000000;1875.00000000000;1832.00000000000;1803.00000000000;1727.00000000000;1651.00000000000;1644.00000000000;1651.00000000000;1636.00000000000;1619.00000000000;1603.00000000000;1609.00000000000;1629.00000000000;1616.00000000000;1639.00000000000;1641.00000000000;1649.00000000000;1663.00000000000;1635.00000000000;1672.00000000000;1656.00000000000;1665.00000000000;1681.00000000000;1665.00000000000;1667.00000000000;1700.00000000000;1681.00000000000;1654.00000000000;1692.00000000000;1693.00000000000;1717.00000000000;1700.00000000000;1730.00000000000;1704.00000000000;1716.00000000000;1717.00000000000;1748.00000000000;1722.00000000000;1716.00000000000;1720.00000000000;1726.00000000000;1716.00000000000;1717.00000000000;1725.00000000000;1702.00000000000;1720.00000000000;1721.00000000000
Gyro Z : 1908.00000000000;1894.00000000000;1928.00000000000;1925.00000000000;1910.00000000000;1920.00000000000;1913.00000000000;1952.00000000000;1895.00000000000;1913.00000000000;1901.00000000000;1905.00000000000;1926.00000000000;1915.00000000000;1921.00000000000;1930.00000000000;1912.00000000000;1923.00000000000;1922.00000000000;1914.00000000000;1906.00000000000;1919.00000000000;1917.00000000000;1936.00000000000;1904.00000000000;1920.00000000000;1921.00000000000;1917.00000000000;1909.00000000000;1899.00000000000;1905.00000000000;1897.00000000000;1903.00000000000;1911.00000000000;1913.00000000000;1919.00000000000;1925.00000000000;1901.00000000000;1904.00000000000;1921.00000000000;1947.00000000000;1957.00000000000;1955.00000000000;1931.00000000000;1932.00000000000;1898.00000000000;1943.00000000000;1834.00000000000;1919.00000000000;1914.00000000000;1880.00000000000;1936.00000000000;1965.00000000000;1990.00000000000;1980.00000000000;1973.00000000000;1938.00000000000;1701.00000000000;1687.00000000000;1764.00000000000;1673.00000000000;1700.00000000000;1667.00000000000;1858.00000000000;1987.00000000000;1994.00000000000;2118.00000000000;2131.00000000000;2146.00000000000;2168.00000000000;2191.00000000000;2250.00000000000;2291.00000000000;2234.00000000000;2192.00000000000;2132.00000000000;2072.00000000000;2020.00000000000;1949.00000000000;1940.00000000000;1895.00000000000;1855.00000000000;1853.00000000000;1795.00000000000;1841.00000000000;1805.00000000000;1676.00000000000;1647.00000000000;1586.00000000000;1773.00000000000;1726.00000000000;1801.00000000000;1729.00000000000;1700.00000000000;1712.00000000000;1704.00000000000;1805.00000000000;1725.00000000000;1783.00000000000;1756.00000000000;1702.00000000000;1734.00000000000;1765.00000000000;1784.00000000000;1785.00000000000;1806.00000000000;1852.00000000000;1819.00000000000;1812.00000000000;1787.00000000000;1783.00000000000;1819.00000000000;1837.00000000000;1831.00000000000;1847.00000000000;1844.00000000000;1830.00000000000;1792.00000000000;1804.00000000000;1818.00000000000;1778.00000000000;1809.00000000000;1791.00000000000;1795.00000000000;1776.00000000000;1767.00000000000;1760.00000000000;1741.00000000000;1758.00000000000;1755.00000000000;1757.00000000000;1771.00000000000;1778.00000000000;1720.00000000000;1772.00000000000;1764.00000000000;1752.00000000000;1764.00000000000;1771.00000000000;1792.00000000000;1761.00000000000;1775.00000000000;1772.00000000000;1788.00000000000;1777.00000000000;1794.00000000000;1773.00000000000;1779.00000000000;1778.00000000000;1785.00000000000
