COMMAND 3 SAMPLE 1
Accel X : 2846.00000000000;2886.00000000000;2870.00000000000;2829.00000000000;2842.00000000000;2851.00000000000;2864.00000000000;2867.00000000000;2843.00000000000;2852.00000000000;2832.00000000000;2845.00000000000;2870.00000000000;2851.00000000000;2854.00000000000;2838.00000000000;2859.00000000000;2892.00000000000;2867.00000000000;2850.00000000000;2843.00000000000;2846.00000000000;2857.00000000000;2855.00000000000;2844.00000000000;2847.00000000000;2838.00000000000;2844.00000000000;2840.00000000000;2862.00000000000;2855.00000000000;2832.00000000000;2742.00000000000;2742.00000000000;2884.00000000000;2853.00000000000;3091.00000000000;2983.00000000000;3045.00000000000;3028.00000000000;3108.00000000000;3045.00000000000;3197.00000000000;3084.00000000000;3246.00000000000;3130.00000000000;3059.00000000000;3136.00000000000;3111.00000000000;3003.00000000000;2907.00000000000;2802.00000000000;2714.00000000000;2735.00000000000;2660.00000000000;2562.00000000000;2485.00000000000;2404.00000000000;2331.00000000000;2238.00000000000;2189.00000000000;2149.00000000000;2091.00000000000;2009.00000000000;1892.00000000000;1813.00000000000;1796.00000000000;1789.00000000000;1701.00000000000;1610.00000000000;1628.00000000000;1652.00000000000;1645.00000000000;1665.00000000000;1660.00000000000;1635.00000000000;1698.00000000000;1717.00000000000;1756.00000000000;1815.00000000000;1827.00000000000;1898.00000000000;1944.00000000000;1915.00000000000;1948.00000000000;1751.00000000000;1834.00000000000;1937.00000000000;1997.00000000000;2181.00000000000;1941.00000000000;1930.00000000000;2119.00000000000;2246.00000000000;2437.00000000000;2603.00000000000;2722.00000000000;2843.00000000000;2933.00000000000;3390.00000000000;3744.00000000000;4074.00000000000;4075.00000000000;4075.00000000000;4074.00000000000;4073.00000000000;3959.00000000000;3638.00000000000;3367.00000000000;3196.00000000000;3120.00000000000;3079.00000000000;2991.00000000000;2983.00000000000;2920.00000000000;2876.00000000000;2874.00000000000;2839.00000000000;2809.00000000000;2801.00000000000;2835.00000000000;2831.00000000000;2836.00000000000;2823.00000000000;2844.00000000000;2845.00000000000;2861.00000000000;2860.00000000000;2869.00000000000;2868.00000000000;2882.00000000000;2880.00000000000;2876.00000000000;2873.00000000000;2856.00000000000;2863.00000000000;2864.00000000000;2847.00000000000;2881.00000000000;2878.00000000000;2873.00000000000;2881.00000000000;2875.00000000000;2870.00000000000;2863.00000000000;2860.00000000000;2867.00000000000;2872.00000000000;2861.00000000000;2843.00000000000
Accel Y : 2131.00000000000;2139.00000000000;2122.00000000000;2135.00000000000;2131.00000000000;2154.00000000000;2149.00000000000;2152.00000000000;2147.00000000000;2131.00000000000;2128.00000000000;2128.00000000000;2153.00000000000;2128.00000000000;2142.00000000000;2151.00000000000;2126.00000000000;2123.00000000000;2134.00000000000;2114.00000000000;2127.00000000000;2114.00000000000;2135.00000000000;2144.00000000000;2124.00000000000;2142.00000000000;2122.00000000000;2139.00000000000;2108.00000000000;2122.00000000000;2094.00000000000;2103.00000000000;2048.00000000000;2054.00000000000;2024.00000000000;2032.00000000000;1997.00000000000;1949.00000000000;1922.00000000000;1889.00000000000;1816.00000000000;1776.00000000000;1697.00000000000;1654.00000000000;1504.00000000000;1469.00000000000;1340.00000000000;1332.00000000000;1358.00000000000;1312.00000000000;1334.00000000000;1356.00000000000;1429.00000000000;1537.00000000000;1601.00000000000;1659.00000000000;1739.00000000000;1785.00000000000;1842.00000000000;1933.00000000000;1990.00000000000;2048.00000000000;2025.00000000000;2016.00000000000;1950.00000000000;1983.00000000000;1937.00000000000;1876.00000000000;1859.00000000000;1852.00000000000;1820.00000000000;1771.00000000000;1761.00000000000;1716.00000000000;1679.00000000000;1628.00000000000;1533.00000000000;1493.00000000000;1505.00000000000;1537.00000000000;1544.00000000000;1575.00000000000;1543.00000000000;1555.00000000000;1619.00000000000;1545.00000000000;1538.00000000000;1564.00000000000;1674.00000000000;1762.00000000000;1581.00000000000;1367.00000000000;1613.00000000000;1997.00000000000;2094.00000000000;1897.00000000000;1765.00000000000;2028.00000000000;2125.00000000000;2115.00000000000;1921.00000000000;1928.00000000000;1971.00000000000;1982.00000000000;1923.00000000000;1913.00000000000;1850.00000000000;1864.00000000000;1895.00000000000;1932.00000000000;1983.00000000000;2007.00000000000;2021.00000000000;2091.00000000000;2110.00000000000;2120.00000000000;2121.00000000000;2142.00000000000;2120.00000000000;2134.00000000000;2126.00000000000;2086.00000000000;2093.00000000000;2078.00000000000;2087.00000000000;2067.00000000000;2049.00000000000;2045.00000000000;2037.00000000000;2042.00000000000;2049.00000000000;2054.00000000000;2055.00000000000;2040.00000000000;2026.00000000000;2027.00000000000;2054.00000000000;2038.00000000000;2041.00000000000;2056.00000000000;2069.00000000000;2089.00000000000;2076.00000000000;2077.00000000000;2058.00000000000;2035.00000000000;2072.00000000000;2073.00000000000;2072.00000000000;2077.00000000000
Accel Z : 1884.00000000000;1915.00000000000;1925.00000000000;1914.00000000000;1916.00000000000;1905.00000000000;1922.00000000000;1897.00000000000;1936.00000000000;1917.00000000000;1926.00000000000;1919.00000000000;1957.00000000000;1913.00000000000;1926.00000000000;1907.00000000000;1922.00000000000;1915.00000000000;1923.00000000000;1926.00000000000;1933.00000000000;1906.00000000000;1915.00000000000;1919.00000000000;1920.00000000000;1904.00000000000;1911.00000000000;1930.00000000000;1930.00000000000;1903.00000000000;1917.00000000000;1872.00000000000;1828.00000000000;1791.00000000000;1667.00000000000;1702.00000000000;1646.00000000000;1443.00000000000;1335.00000000000;1275.00000000000;1147.00000000000;1055.00000000000;971.000000000000;899.000000000000;798.000000000000;696.000000000000;504.000000000000;371.000000000000;306.000000000000;171.000000000000;149.000000000000;159.000000000000;131.000000000000;226.000000000000;424.000000000000;598.000000000000;786.000000000000;977.000000000000;1093.00000000000;1257.00000000000;1336.00000000000;1396.00000000000;1528.00000000000;1724.00000000000;1807.00000000000;1959.00000000000;2068.00000000000;2190.00000000000;2320.00000000000;2372.00000000000;2451.00000000000;2469.00000000000;2518.00000000000;2500.00000000000;2522.00000000000;2468.00000000000;2380.00000000000;2300.00000000000;2200.00000000000;2125.00000000000;2121.00000000000;2051.00000000000;1980.00000000000;1915.00000000000;1868.00000000000;1716.00000000000;1724.00000000000;1763.00000000000;1835.00000000000;1686.00000000000;1551.00000000000;1477.00000000000;1718.00000000000;1750.00000000000;1639.00000000000;1510.00000000000;1861.00000000000;1974.00000000000;1910.00000000000;1871.00000000000;1826.00000000000;1947.00000000000;2116.00000000000;2049.00000000000;1970.00000000000;1908.00000000000;1908.00000000000;1942.00000000000;1934.00000000000;1885.00000000000;1837.00000000000;1810.00000000000;1785.00000000000;1759.00000000000;1728.00000000000;1724.00000000000;1714.00000000000;1707.00000000000;1710.00000000000;1706.00000000000;1678.00000000000;1686.00000000000;1712.00000000000;1669.00000000000;1707.00000000000;1711.00000000000;1709.00000000000;1717.00000000000;1721.00000000000;1708.00000000000;1733.00000000000;1710.00000000000;1712.00000000000;1743.00000000000;1749.00000000000;1763.00000000000;1758.00000000000;1751.00000000000;1744.00000000000;1763.00000000000;1763.00000000000;1774.00000000000;1753.00000000000;1770.00000000000;1758.00000000000;1759.00000000000;1757.00000000000;1755.00000000000;1779.00000000000;1742.00000000000
Gyro X : 2846.00000000000;2886.00000000000;2870.00000000000;2829.00000000000;2842.00000000000;2851.00000000000;2864.00000000000;2867.00000000000;2843.00000000000;2852.00000000000;2832.00000000000;2845.00000000000;2870.00000000000;2851.00000000000;2854.00000000000;2838.00000000000;2859.00000000000;2892.00000000000;2867.00000000000;2850.00000000000;2843.00000000000;2846.00000000000;2857.00000000000;2855.00000000000;2844.00000000000;2847.00000000000;2838.00000000000;2844.00000000000;2840.00000000000;2862.00000000000;2855.00000000000;2832.00000000000;2742.00000000000;2742.00000000000;2884.00000000000;2853.00000000000;3091.00000000000;2983.00000000000;3045.00000000000;3028.00000000000;3108.00000000000;3045.00000000000;3197.00000000000;3084.00000000000;3246.00000000000;3130.00000000000;3059.00000000000;3136.00000000000;3111.00000000000;3003.00000000000;2907.00000000000;2802.00000000000;2714.00000000000;2735.00000000000;2660.00000000000;2562.00000000000;2485.00000000000;2404.00000000000;2331.00000000000;2238.00000000000;2189.00000000000;2149.00000000000;2091.00000000000;2009.00000000000;1892.00000000000;1813.00000000000;1796.00000000000;1789.00000000000;1701.00000000000;1610.00000000000;1628.00000000000;1652.00000000000;1645.00000000000;1665.00000000000;1660.00000000000;1635.00000000000;1698.00000000000;1717.00000000000;1756.00000000000;1815.00000000000;1827.00000000000;1898.00000000000;1944.00000000000;1915.00000000000;1948.00000000000;1751.00000000000;1834.00000000000;1937.00000000000;1997.00000000000;2181.00000000000;1941.00000000000;1930.00000000000;2119.00000000000;2246.00000000000;2437.00000000000;2603.00000000000;2722.00000000000;2843.00000000000;2933.00000000000;3390.00000000000;3744.00000000000;4074.00000000000;4075.00000000000;4075.00000000000;4074.00000000000;4073.00000000000;3959.00000000000;3638.00000000000;3367.00000000000;3196.00000000000;3120.00000000000;3079.00000000000;2991.00000000000;2983.00000000000;2920.00000000000;2876.00000000000;2874.00000000000;2839.00000000000;2809.00000000000;2801.00000000000;2835.00000000000;2831.00000000000;2836.00000000000;2823.00000000000;2844.00000000000;2845.00000000000;2861.00000000000;2860.00000000000;2869.00000000000;2868.00000000000;2882.00000000000;2880.00000000000;2876.00000000000;2873.00000000000;2856.00000000000;2863.00000000000;2864.00000000000;2847.00000000000;2881.00000000000;2878.00000000000;2873.00000000000;2881.00000000000;2875.00000000000;2870.00000000000;2863.00000000000;2860.00000000000;2867.00000000000;2872.00000000000;2861.00000000000;2843.00000000000
Gyro Y : 2131.00000000000;2139.00000000000;2122.00000000000;2135.00000000000;2131.00000000000;2154.00000000000;2149.00000000000;2152.00000000000;2147.00000000000;2131.00000000000;2128.00000000000;2128.00000000000;2153.00000000000;2128.00000000000;2142.00000000000;2151.00000000000;2126.00000000000;2123.00000000000;2134.00000000000;2114.00000000000;2127.00000000000;2114.00000000000;2135.00000000000;2144.00000000000;2124.00000000000;2142.00000000000;2122.00000000000;2139.00000000000;2108.00000000000;2122.00000000000;2094.00000000000;2103.00000000000;2048.00000000000;2054.00000000000;2024.00000000000;2032.00000000000;1997.00000000000;1949.00000000000;1922.00000000000;1889.00000000000;1816.00000000000;1776.00000000000;1697.00000000000;1654.00000000000;1504.00000000000;1469.00000000000;1340.00000000000;1332.00000000000;1358.00000000000;1312.00000000000;1334.00000000000;1356.00000000000;1429.00000000000;1537.00000000000;1601.00000000000;1659.00000000000;1739.00000000000;1785.00000000000;1842.00000000000;1933.00000000000;1990.00000000000;2048.00000000000;2025.00000000000;2016.00000000000;1950.00000000000;1983.00000000000;1937.00000000000;1876.00000000000;1859.00000000000;1852.00000000000;1820.00000000000;1771.00000000000;1761.00000000000;1716.00000000000;1679.00000000000;1628.00000000000;1533.00000000000;1493.00000000000;1505.00000000000;1537.00000000000;1544.00000000000;1575.00000000000;1543.00000000000;1555.00000000000;1619.00000000000;1545.00000000000;1538.00000000000;1564.00000000000;1674.00000000000;1762.00000000000;1581.00000000000;1367.00000000000;1613.00000000000;1997.00000000000;2094.00000000000;1897.00000000000;1765.00000000000;2028.00000000000;2125.00000000000;2115.00000000000;1921.00000000000;1928.00000000000;1971.00000000000;1982.00000000000;1923.00000000000;1913.00000000000;1850.00000000000;1864.00000000000;1895.00000000000;1932.00000000000;1983.00000000000;2007.00000000000;2021.00000000000;2091.00000000000;2110.00000000000;2120.00000000000;2121.00000000000;2142.00000000000;2120.00000000000;2134.00000000000;2126.00000000000;2086.00000000000;2093.00000000000;2078.00000000000;2087.00000000000;2067.00000000000;2049.00000000000;2045.00000000000;2037.00000000000;2042.00000000000;2049.00000000000;2054.00000000000;2055.00000000000;2040.00000000000;2026.00000000000;2027.00000000000;2054.00000000000;2038.00000000000;2041.00000000000;2056.00000000000;2069.00000000000;2089.00000000000;2076.00000000000;2077.00000000000;2058.00000000000;2035.00000000000;2072.00000000000;2073.00000000000;2072.00000000000;2077.00000000000
Gyro Z : 1884.00000000000;1915.00000000000;1925.00000000000;1914.00000000000;1916.00000000000;1905.00000000000;1922.00000000000;1897.00000000000;1936.00000000000;1917.00000000000;1926.00000000000;1919.00000000000;1957.00000000000;1913.00000000000;1926.00000000000;1907.00000000000;1922.00000000000;1915.00000000000;1923.00000000000;1926.00000000000;1933.00000000000;1906.00000000000;1915.00000000000;1919.00000000000;1920.00000000000;1904.00000000000;1911.00000000000;1930.00000000000;1930.00000000000;1903.00000000000;1917.00000000000;1872.00000000000;1828.00000000000;1791.00000000000;1667.00000000000;1702.00000000000;1646.00000000000;1443.00000000000;1335.00000000000;1275.00000000000;1147.00000000000;1055.00000000000;971.000000000000;899.000000000000;798.000000000000;696.000000000000;504.000000000000;371.000000000000;306.000000000000;171.000000000000;149.000000000000;159.000000000000;131.000000000000;226.000000000000;424.000000000000;598.000000000000;786.000000000000;977.000000000000;1093.00000000000;1257.00000000000;1336.00000000000;1396.00000000000;1528.00000000000;1724.00000000000;1807.00000000000;1959.00000000000;2068.00000000000;2190.00000000000;2320.00000000000;2372.00000000000;2451.00000000000;2469.00000000000;2518.00000000000;2500.00000000000;2522.00000000000;2468.00000000000;2380.00000000000;2300.00000000000;2200.00000000000;2125.00000000000;2121.00000000000;2051.00000000000;1980.00000000000;1915.00000000000;1868.00000000000;1716.00000000000;1724.00000000000;1763.00000000000;1835.00000000000;1686.00000000000;1551.00000000000;1477.00000000000;1718.00000000000;1750.00000000000;1639.00000000000;1510.00000000000;1861.00000000000;1974.00000000000;1910.00000000000;1871.00000000000;1826.00000000000;1947.00000000000;2116.00000000000;2049.00000000000;1970.00000000000;1908.00000000000;1908.00000000000;1942.00000000000;1934.00000000000;1885.00000000000;1837.00000000000;1810.00000000000;1785.00000000000;1759.00000000000;1728.00000000000;1724.00000000000;1714.00000000000;1707.00000000000;1710.00000000000;1706.00000000000;1678.00000000000;1686.00000000000;1712.00000000000;1669.00000000000;1707.00000000000;1711.00000000000;1709.00000000000;1717.00000000000;1721.00000000000;1708.00000000000;1733.00000000000;1710.00000000000;1712.00000000000;1743.00000000000;1749.00000000000;1763.00000000000;1758.00000000000;1751.00000000000;1744.00000000000;1763.00000000000;1763.00000000000;1774.00000000000;1753.00000000000;1770.00000000000;1758.00000000000;1759.00000000000;1757.00000000000;1755.00000000000;1779.00000000000;1742.00000000000
