COMMAND 1 SAMPLE 1
Accel X : 2845.00000000000;2839.00000000000;2829.00000000000;2843.00000000000;2836.00000000000;2835.00000000000;2833.00000000000;2863.00000000000;2854.00000000000;2844.00000000000;2864.00000000000;2848.00000000000;2855.00000000000;2888.00000000000;2859.00000000000;2841.00000000000;2847.00000000000;2866.00000000000;2852.00000000000;2869.00000000000;2858.00000000000;2841.00000000000;2854.00000000000;2879.00000000000;2873.00000000000;2896.00000000000;2947.00000000000;2973.00000000000;3014.00000000000;3003.00000000000;3107.00000000000;3143.00000000000;3157.00000000000;3228.00000000000;3242.00000000000;3310.00000000000;3392.00000000000;3332.00000000000;3284.00000000000;3164.00000000000;3038.00000000000;2843.00000000000;2603.00000000000;2500.00000000000;2197.00000000000;2019.00000000000;1758.00000000000;1505.00000000000;1309.00000000000;1309.00000000000;1243.00000000000;1127.00000000000;997.000000000000;987.000000000000;1036.00000000000;1243.00000000000;1328.00000000000;1402.00000000000;1582.00000000000;1681.00000000000;1759.00000000000;1871.00000000000;2167.00000000000;2358.00000000000;2284.00000000000;2355.00000000000;2890.00000000000;3382.00000000000;3804.00000000000;3467.00000000000;3336.00000000000;3360.00000000000;3531.00000000000;3503.00000000000;3304.00000000000;3120.00000000000;3005.00000000000;2927.00000000000;2799.00000000000;2755.00000000000;2680.00000000000;2649.00000000000;2557.00000000000;2466.00000000000;2362.00000000000;2237.00000000000;2269.00000000000;2474.00000000000;2455.00000000000;2572.00000000000;2629.00000000000;2625.00000000000;2943.00000000000;3154.00000000000;2954.00000000000;3248.00000000000;3490.00000000000;3614.00000000000;3584.00000000000;3375.00000000000;3403.00000000000;3270.00000000000;3283.00000000000;3170.00000000000;3067.00000000000;3135.00000000000;3011.00000000000;2976.00000000000;2955.00000000000;2907.00000000000;2841.00000000000;2853.00000000000;2841.00000000000;2819.00000000000;2816.00000000000;2843.00000000000;2837.00000000000;2791.00000000000;2794.00000000000;2808.00000000000;2816.00000000000;2810.00000000000;2823.00000000000;2835.00000000000;2828.00000000000;2834.00000000000;2853.00000000000;2845.00000000000;2855.00000000000;2835.00000000000;2867.00000000000;2837.00000000000;2875.00000000000;2879.00000000000;2852.00000000000;2855.00000000000;2886.00000000000;2909.00000000000;2893.00000000000;2855.00000000000;2868.00000000000;2850.00000000000;2836.00000000000;2859.00000000000;2851.00000000000;2823.00000000000;2833.00000000000;2822.00000000000;2831.00000000000;2864.00000000000
Accel Y : 2151.00000000000;2148.00000000000;2147.00000000000;2176.00000000000;2154.00000000000;2159.00000000000;2147.00000000000;2149.00000000000;2135.00000000000;2165.00000000000;2159.00000000000;2143.00000000000;2169.00000000000;2150.00000000000;2167.00000000000;2149.00000000000;2156.00000000000;2156.00000000000;2143.00000000000;2148.00000000000;2142.00000000000;2151.00000000000;2147.00000000000;2152.00000000000;2169.00000000000;2165.00000000000;2173.00000000000;2168.00000000000;2168.00000000000;2176.00000000000;2201.00000000000;2185.00000000000;2167.00000000000;2149.00000000000;2123.00000000000;2095.00000000000;2017.00000000000;1891.00000000000;1778.00000000000;1673.00000000000;1575.00000000000;1477.00000000000;1382.00000000000;1375.00000000000;1367.00000000000;1401.00000000000;1395.00000000000;1381.00000000000;1314.00000000000;1129.00000000000;1038.00000000000;1004.00000000000;1036.00000000000;1108.00000000000;1190.00000000000;1317.00000000000;1461.00000000000;1582.00000000000;1695.00000000000;1781.00000000000;1898.00000000000;1957.00000000000;2043.00000000000;2137.00000000000;2286.00000000000;2516.00000000000;2686.00000000000;2714.00000000000;2545.00000000000;2451.00000000000;2298.00000000000;2017.00000000000;1828.00000000000;1775.00000000000;1809.00000000000;1879.00000000000;1888.00000000000;1895.00000000000;1979.00000000000;2058.00000000000;2131.00000000000;2171.00000000000;2136.00000000000;2163.00000000000;2165.00000000000;2126.00000000000;1988.00000000000;1935.00000000000;1981.00000000000;2051.00000000000;2025.00000000000;1947.00000000000;1821.00000000000;1869.00000000000;1922.00000000000;1955.00000000000;1969.00000000000;1921.00000000000;1917.00000000000;1912.00000000000;1924.00000000000;1935.00000000000;1971.00000000000;2001.00000000000;2027.00000000000;2069.00000000000;2107.00000000000;2141.00000000000;2186.00000000000;2201.00000000000;2203.00000000000;2229.00000000000;2225.00000000000;2221.00000000000;2231.00000000000;2223.00000000000;2221.00000000000;2227.00000000000;2204.00000000000;2200.00000000000;2208.00000000000;2191.00000000000;2190.00000000000;2172.00000000000;2198.00000000000;2162.00000000000;2174.00000000000;2173.00000000000;2177.00000000000;2169.00000000000;2175.00000000000;2171.00000000000;2190.00000000000;2167.00000000000;2204.00000000000;2183.00000000000;2193.00000000000;2207.00000000000;2194.00000000000;2210.00000000000;2226.00000000000;2215.00000000000;2193.00000000000;2207.00000000000;2205.00000000000;2223.00000000000;2210.00000000000;2203.00000000000;2197.00000000000;2194.00000000000
Accel Z : 1918.00000000000;1915.00000000000;1921.00000000000;1925.00000000000;1925.00000000000;1923.00000000000;1933.00000000000;1914.00000000000;1908.00000000000;1917.00000000000;1927.00000000000;1909.00000000000;1923.00000000000;1914.00000000000;1916.00000000000;1924.00000000000;1915.00000000000;1926.00000000000;1930.00000000000;1900.00000000000;1917.00000000000;1935.00000000000;1907.00000000000;1909.00000000000;1918.00000000000;1919.00000000000;1919.00000000000;1919.00000000000;1957.00000000000;1931.00000000000;1948.00000000000;1925.00000000000;1931.00000000000;1930.00000000000;1949.00000000000;1962.00000000000;2016.00000000000;1990.00000000000;2000.00000000000;2008.00000000000;2040.00000000000;2045.00000000000;2020.00000000000;2023.00000000000;1951.00000000000;1977.00000000000;1989.00000000000;1916.00000000000;1901.00000000000;1812.00000000000;1792.00000000000;1723.00000000000;1714.00000000000;1702.00000000000;1700.00000000000;1758.00000000000;1721.00000000000;1693.00000000000;1700.00000000000;1680.00000000000;1651.00000000000;1638.00000000000;1736.00000000000;1815.00000000000;1826.00000000000;1449.00000000000;1644.00000000000;1753.00000000000;1976.00000000000;2035.00000000000;1945.00000000000;1905.00000000000;1904.00000000000;1936.00000000000;1914.00000000000;1907.00000000000;1915.00000000000;1902.00000000000;1866.00000000000;1821.00000000000;1719.00000000000;1724.00000000000;1734.00000000000;1786.00000000000;1781.00000000000;1781.00000000000;1702.00000000000;1664.00000000000;1747.00000000000;1859.00000000000;1976.00000000000;1895.00000000000;1818.00000000000;1908.00000000000;1950.00000000000;2093.00000000000;2062.00000000000;2148.00000000000;2178.00000000000;2193.00000000000;2151.00000000000;2101.00000000000;2111.00000000000;2087.00000000000;2034.00000000000;2046.00000000000;1979.00000000000;1948.00000000000;1929.00000000000;1904.00000000000;1867.00000000000;1857.00000000000;1849.00000000000;1837.00000000000;1842.00000000000;1804.00000000000;1808.00000000000;1805.00000000000;1803.00000000000;1825.00000000000;1816.00000000000;1826.00000000000;1828.00000000000;1816.00000000000;1816.00000000000;1830.00000000000;1860.00000000000;1858.00000000000;1855.00000000000;1869.00000000000;1863.00000000000;1868.00000000000;1884.00000000000;1874.00000000000;1881.00000000000;1898.00000000000;1906.00000000000;1899.00000000000;1905.00000000000;1908.00000000000;1895.00000000000;1938.00000000000;1920.00000000000;1913.00000000000;1915.00000000000;1901.00000000000;1907.00000000000;1904.00000000000;1892.00000000000;1909.00000000000
Gyro X : 2845.00000000000;2839.00000000000;2829.00000000000;2843.00000000000;2836.00000000000;2835.00000000000;2833.00000000000;2863.00000000000;2854.00000000000;2844.00000000000;2864.00000000000;2848.00000000000;2855.00000000000;2888.00000000000;2859.00000000000;2841.00000000000;2847.00000000000;2866.00000000000;2852.00000000000;2869.00000000000;2858.00000000000;2841.00000000000;2854.00000000000;2879.00000000000;2873.00000000000;2896.00000000000;2947.00000000000;2973.00000000000;3014.00000000000;3003.00000000000;3107.00000000000;3143.00000000000;3157.00000000000;3228.00000000000;3242.00000000000;3310.00000000000;3392.00000000000;3332.00000000000;3284.00000000000;3164.00000000000;3038.00000000000;2843.00000000000;2603.00000000000;2500.00000000000;2197.00000000000;2019.00000000000;1758.00000000000;1505.00000000000;1309.00000000000;1309.00000000000;1243.00000000000;1127.00000000000;997.000000000000;987.000000000000;1036.00000000000;1243.00000000000;1328.00000000000;1402.00000000000;1582.00000000000;1681.00000000000;1759.00000000000;1871.00000000000;2167.00000000000;2358.00000000000;2284.00000000000;2355.00000000000;2890.00000000000;3382.00000000000;3804.00000000000;3467.00000000000;3336.00000000000;3360.00000000000;3531.00000000000;3503.00000000000;3304.00000000000;3120.00000000000;3005.00000000000;2927.00000000000;2799.00000000000;2755.00000000000;2680.00000000000;2649.00000000000;2557.00000000000;2466.00000000000;2362.00000000000;2237.00000000000;2269.00000000000;2474.00000000000;2455.00000000000;2572.00000000000;2629.00000000000;2625.00000000000;2943.00000000000;3154.00000000000;2954.00000000000;3248.00000000000;3490.00000000000;3614.00000000000;3584.00000000000;3375.00000000000;3403.00000000000;3270.00000000000;3283.00000000000;3170.00000000000;3067.00000000000;3135.00000000000;3011.00000000000;2976.00000000000;2955.00000000000;2907.00000000000;2841.00000000000;2853.00000000000;2841.00000000000;2819.00000000000;2816.00000000000;2843.00000000000;2837.00000000000;2791.00000000000;2794.00000000000;2808.00000000000;2816.00000000000;2810.00000000000;2823.00000000000;2835.00000000000;2828.00000000000;2834.00000000000;2853.00000000000;2845.00000000000;2855.00000000000;2835.00000000000;2867.00000000000;2837.00000000000;2875.00000000000;2879.00000000000;2852.00000000000;2855.00000000000;2886.00000000000;2909.00000000000;2893.00000000000;2855.00000000000;2868.00000000000;2850.00000000000;2836.00000000000;2859.00000000000;2851.00000000000;2823.00000000000;2833.00000000000;2822.00000000000;2831.00000000000;2864.00000000000
Gyro Y : 2151.00000000000;2148.00000000000;2147.00000000000;2176.00000000000;2154.00000000000;2159.00000000000;2147.00000000000;2149.00000000000;2135.00000000000;2165.00000000000;2159.00000000000;2143.00000000000;2169.00000000000;2150.00000000000;2167.00000000000;2149.00000000000;2156.00000000000;2156.00000000000;2143.00000000000;2148.00000000000;2142.00000000000;2151.00000000000;2147.00000000000;2152.00000000000;2169.00000000000;2165.00000000000;2173.00000000000;2168.00000000000;2168.00000000000;2176.00000000000;2201.00000000000;2185.00000000000;2167.00000000000;2149.00000000000;2123.00000000000;2095.00000000000;2017.00000000000;1891.00000000000;1778.00000000000;1673.00000000000;1575.00000000000;1477.00000000000;1382.00000000000;1375.00000000000;1367.00000000000;1401.00000000000;1395.00000000000;1381.00000000000;1314.00000000000;1129.00000000000;1038.00000000000;1004.00000000000;1036.00000000000;1108.00000000000;1190.00000000000;1317.00000000000;1461.00000000000;1582.00000000000;1695.00000000000;1781.00000000000;1898.00000000000;1957.00000000000;2043.00000000000;2137.00000000000;2286.00000000000;2516.00000000000;2686.00000000000;2714.00000000000;2545.00000000000;2451.00000000000;2298.00000000000;2017.00000000000;1828.00000000000;1775.00000000000;1809.00000000000;1879.00000000000;1888.00000000000;1895.00000000000;1979.00000000000;2058.00000000000;2131.00000000000;2171.00000000000;2136.00000000000;2163.00000000000;2165.00000000000;2126.00000000000;1988.00000000000;1935.00000000000;1981.00000000000;2051.00000000000;2025.00000000000;1947.00000000000;1821.00000000000;1869.00000000000;1922.00000000000;1955.00000000000;1969.00000000000;1921.00000000000;1917.00000000000;1912.00000000000;1924.00000000000;1935.00000000000;1971.00000000000;2001.00000000000;2027.00000000000;2069.00000000000;2107.00000000000;2141.00000000000;2186.00000000000;2201.00000000000;2203.00000000000;2229.00000000000;2225.00000000000;2221.00000000000;2231.00000000000;2223.00000000000;2221.00000000000;2227.00000000000;2204.00000000000;2200.00000000000;2208.00000000000;2191.00000000000;2190.00000000000;2172.00000000000;2198.00000000000;2162.00000000000;2174.00000000000;2173.00000000000;2177.00000000000;2169.00000000000;2175.00000000000;2171.00000000000;2190.00000000000;2167.00000000000;2204.00000000000;2183.00000000000;2193.00000000000;2207.00000000000;2194.00000000000;2210.00000000000;2226.00000000000;2215.00000000000;2193.00000000000;2207.00000000000;2205.00000000000;2223.00000000000;2210.00000000000;2203.00000000000;2197.00000000000;2194.00000000000
Gyro Z : 1918.00000000000;1915.00000000000;1921.00000000000;1925.00000000000;1925.00000000000;1923.00000000000;1933.00000000000;1914.00000000000;1908.00000000000;1917.00000000000;1927.00000000000;1909.00000000000;1923.00000000000;1914.00000000000;1916.00000000000;1924.00000000000;1915.00000000000;1926.00000000000;1930.00000000000;1900.00000000000;1917.00000000000;1935.00000000000;1907.00000000000;1909.00000000000;1918.00000000000;1919.00000000000;1919.00000000000;1919.00000000000;1957.00000000000;1931.00000000000;1948.00000000000;1925.00000000000;1931.00000000000;1930.00000000000;1949.00000000000;1962.00000000000;2016.00000000000;1990.00000000000;2000.00000000000;2008.00000000000;2040.00000000000;2045.00000000000;2020.00000000000;2023.00000000000;1951.00000000000;1977.00000000000;1989.00000000000;1916.00000000000;1901.00000000000;1812.00000000000;1792.00000000000;1723.00000000000;1714.00000000000;1702.00000000000;1700.00000000000;1758.00000000000;1721.00000000000;1693.00000000000;1700.00000000000;1680.00000000000;1651.00000000000;1638.00000000000;1736.00000000000;1815.00000000000;1826.00000000000;1449.00000000000;1644.00000000000;1753.00000000000;1976.00000000000;2035.00000000000;1945.00000000000;1905.00000000000;1904.00000000000;1936.00000000000;1914.00000000000;1907.00000000000;1915.00000000000;1902.00000000000;1866.00000000000;1821.00000000000;1719.00000000000;1724.00000000000;1734.00000000000;1786.00000000000;1781.00000000000;1781.00000000000;1702.00000000000;1664.00000000000;1747.00000000000;1859.00000000000;1976.00000000000;1895.00000000000;1818.00000000000;1908.00000000000;1950.00000000000;2093.00000000000;2062.00000000000;2148.00000000000;2178.00000000000;2193.00000000000;2151.00000000000;2101.00000000000;2111.00000000000;2087.00000000000;2034.00000000000;2046.00000000000;1979.00000000000;1948.00000000000;1929.00000000000;1904.00000000000;1867.00000000000;1857.00000000000;1849.00000000000;1837.00000000000;1842.00000000000;1804.00000000000;1808.00000000000;1805.00000000000;1803.00000000000;1825.00000000000;1816.00000000000;1826.00000000000;1828.00000000000;1816.00000000000;1816.00000000000;1830.00000000000;1860.00000000000;1858.00000000000;1855.00000000000;1869.00000000000;1863.00000000000;1868.00000000000;1884.00000000000;1874.00000000000;1881.00000000000;1898.00000000000;1906.00000000000;1899.00000000000;1905.00000000000;1908.00000000000;1895.00000000000;1938.00000000000;1920.00000000000;1913.00000000000;1915.00000000000;1901.00000000000;1907.00000000000;1904.00000000000;1892.00000000000;1909.00000000000
