COMMAND 3 SAMPLE 1
Accel X : 2834.00000000000;2851.00000000000;2862.00000000000;2842.00000000000;2836.00000000000;2845.00000000000;2850.00000000000;2824.00000000000;2860.00000000000;2827.00000000000;2851.00000000000;2861.00000000000;2841.00000000000;2830.00000000000;2838.00000000000;2855.00000000000;2846.00000000000;2835.00000000000;2827.00000000000;2811.00000000000;2822.00000000000;2843.00000000000;2835.00000000000;2812.00000000000;2842.00000000000;2840.00000000000;2832.00000000000;2833.00000000000;2820.00000000000;2837.00000000000;2813.00000000000;2846.00000000000;2863.00000000000;2857.00000000000;2850.00000000000;2873.00000000000;2896.00000000000;2926.00000000000;2941.00000000000;3007.00000000000;3079.00000000000;3191.00000000000;3193.00000000000;3363.00000000000;3451.00000000000;3394.00000000000;3298.00000000000;3238.00000000000;3382.00000000000;3384.00000000000;3251.00000000000;3094.00000000000;3093.00000000000;3029.00000000000;2766.00000000000;2758.00000000000;2633.00000000000;2510.00000000000;2465.00000000000;2394.00000000000;2329.00000000000;2284.00000000000;2260.00000000000;2221.00000000000;2209.00000000000;2044.00000000000;1986.00000000000;1933.00000000000;1912.00000000000;1817.00000000000;1837.00000000000;1766.00000000000;1693.00000000000;1640.00000000000;1577.00000000000;1592.00000000000;1570.00000000000;1570.00000000000;1601.00000000000;1694.00000000000;1754.00000000000;1744.00000000000;1771.00000000000;1879.00000000000;1902.00000000000;1957.00000000000;1985.00000000000;2057.00000000000;2133.00000000000;2132.00000000000;1957.00000000000;2175.00000000000;2375.00000000000;2462.00000000000;2360.00000000000;2658.00000000000;3166.00000000000;3315.00000000000;3253.00000000000;3269.00000000000;3653.00000000000;3679.00000000000;3923.00000000000;3890.00000000000;3745.00000000000;3711.00000000000;3774.00000000000;3637.00000000000;3319.00000000000;3050.00000000000;3080.00000000000;3118.00000000000;3074.00000000000;3100.00000000000;3061.00000000000;2967.00000000000;2867.00000000000;2823.00000000000;2810.00000000000;2845.00000000000;2852.00000000000;2867.00000000000;2875.00000000000;2819.00000000000;2824.00000000000;2782.00000000000;2831.00000000000;2803.00000000000;2788.00000000000;2813.00000000000;2785.00000000000;2815.00000000000;2831.00000000000;2816.00000000000;2840.00000000000;2843.00000000000;2842.00000000000;2842.00000000000;2846.00000000000;2835.00000000000;2868.00000000000;2848.00000000000;2859.00000000000;2851.00000000000;2841.00000000000;2838.00000000000;2839.00000000000;2848.00000000000;2858.00000000000;2863.00000000000
Accel Y : 2114.00000000000;2125.00000000000;2092.00000000000;2118.00000000000;2139.00000000000;2132.00000000000;2128.00000000000;2111.00000000000;2123.00000000000;2113.00000000000;2122.00000000000;2131.00000000000;2144.00000000000;2131.00000000000;2142.00000000000;2131.00000000000;2131.00000000000;2122.00000000000;2132.00000000000;2133.00000000000;2146.00000000000;2112.00000000000;2135.00000000000;2138.00000000000;2123.00000000000;2117.00000000000;2136.00000000000;2108.00000000000;2143.00000000000;2100.00000000000;2125.00000000000;2107.00000000000;2101.00000000000;2095.00000000000;2083.00000000000;2075.00000000000;2050.00000000000;2043.00000000000;1983.00000000000;1948.00000000000;1931.00000000000;1887.00000000000;1747.00000000000;1706.00000000000;1689.00000000000;1653.00000000000;1562.00000000000;1442.00000000000;1359.00000000000;1313.00000000000;1250.00000000000;1219.00000000000;1315.00000000000;1353.00000000000;1420.00000000000;1483.00000000000;1508.00000000000;1536.00000000000;1588.00000000000;1693.00000000000;1718.00000000000;1794.00000000000;1843.00000000000;1872.00000000000;1959.00000000000;2063.00000000000;2137.00000000000;2141.00000000000;2099.00000000000;2092.00000000000;2115.00000000000;2114.00000000000;2036.00000000000;1952.00000000000;1884.00000000000;1886.00000000000;1882.00000000000;1852.00000000000;1759.00000000000;1751.00000000000;1804.00000000000;1810.00000000000;1771.00000000000;1805.00000000000;1793.00000000000;1714.00000000000;1696.00000000000;1720.00000000000;1797.00000000000;1783.00000000000;1639.00000000000;1703.00000000000;1876.00000000000;1967.00000000000;1699.00000000000;1458.00000000000;1570.00000000000;1725.00000000000;1555.00000000000;1443.00000000000;1593.00000000000;1887.00000000000;1860.00000000000;1744.00000000000;1865.00000000000;1907.00000000000;1985.00000000000;2034.00000000000;2023.00000000000;1950.00000000000;2051.00000000000;2052.00000000000;2084.00000000000;2125.00000000000;2131.00000000000;2151.00000000000;2182.00000000000;2188.00000000000;2195.00000000000;2202.00000000000;2216.00000000000;2189.00000000000;2180.00000000000;2161.00000000000;2164.00000000000;2170.00000000000;2150.00000000000;2151.00000000000;2155.00000000000;2153.00000000000;2139.00000000000;2152.00000000000;2161.00000000000;2170.00000000000;2158.00000000000;2149.00000000000;2147.00000000000;2177.00000000000;2161.00000000000;2159.00000000000;2157.00000000000;2171.00000000000;2130.00000000000;2157.00000000000;2154.00000000000;2149.00000000000;2171.00000000000;2145.00000000000;2149.00000000000;2129.00000000000
Accel Z : 1974.00000000000;1959.00000000000;1946.00000000000;1951.00000000000;1956.00000000000;1955.00000000000;1939.00000000000;1934.00000000000;1963.00000000000;1942.00000000000;1978.00000000000;1941.00000000000;1957.00000000000;1952.00000000000;1964.00000000000;1952.00000000000;1958.00000000000;1958.00000000000;1957.00000000000;1953.00000000000;1969.00000000000;1960.00000000000;1961.00000000000;1967.00000000000;1965.00000000000;1964.00000000000;1962.00000000000;1955.00000000000;1976.00000000000;1958.00000000000;1957.00000000000;1948.00000000000;1931.00000000000;1940.00000000000;1955.00000000000;1956.00000000000;1916.00000000000;1892.00000000000;1862.00000000000;1862.00000000000;1765.00000000000;1735.00000000000;1519.00000000000;1483.00000000000;1440.00000000000;1397.00000000000;1228.00000000000;1054.00000000000;880.000000000000;776.000000000000;592.000000000000;400.000000000000;291.000000000000;216.000000000000;185.000000000000;248.000000000000;407.000000000000;537.000000000000;703.000000000000;878.000000000000;983.000000000000;1038.00000000000;1155.00000000000;1347.00000000000;1480.00000000000;1572.00000000000;1715.00000000000;1848.00000000000;2091.00000000000;2252.00000000000;2375.00000000000;2496.00000000000;2683.00000000000;2736.00000000000;2773.00000000000;2783.00000000000;2738.00000000000;2588.00000000000;2463.00000000000;2338.00000000000;2196.00000000000;2064.00000000000;1981.00000000000;1875.00000000000;1760.00000000000;1727.00000000000;1674.00000000000;1590.00000000000;1604.00000000000;1392.00000000000;1347.00000000000;1345.00000000000;1304.00000000000;1199.00000000000;852.000000000000;933.000000000000;1041.00000000000;1082.00000000000;973.000000000000;1048.00000000000;1283.00000000000;1638.00000000000;1717.00000000000;1750.00000000000;2006.00000000000;2059.00000000000;2196.00000000000;2130.00000000000;2155.00000000000;2193.00000000000;2132.00000000000;2095.00000000000;2055.00000000000;2095.00000000000;2025.00000000000;2014.00000000000;1979.00000000000;1940.00000000000;1933.00000000000;1919.00000000000;1911.00000000000;1906.00000000000;1892.00000000000;1857.00000000000;1892.00000000000;1884.00000000000;1867.00000000000;1907.00000000000;1894.00000000000;1905.00000000000;1929.00000000000;1872.00000000000;1898.00000000000;1913.00000000000;1931.00000000000;1913.00000000000;1892.00000000000;1907.00000000000;1909.00000000000;1921.00000000000;1921.00000000000;1932.00000000000;1910.00000000000;1924.00000000000;1923.00000000000;1922.00000000000;1911.00000000000;1906.00000000000;1917.00000000000;1901.00000000000
Gyro X : 2834.00000000000;2851.00000000000;2862.00000000000;2842.00000000000;2836.00000000000;2845.00000000000;2850.00000000000;2824.00000000000;2860.00000000000;2827.00000000000;2851.00000000000;2861.00000000000;2841.00000000000;2830.00000000000;2838.00000000000;2855.00000000000;2846.00000000000;2835.00000000000;2827.00000000000;2811.00000000000;2822.00000000000;2843.00000000000;2835.00000000000;2812.00000000000;2842.00000000000;2840.00000000000;2832.00000000000;2833.00000000000;2820.00000000000;2837.00000000000;2813.00000000000;2846.00000000000;2863.00000000000;2857.00000000000;2850.00000000000;2873.00000000000;2896.00000000000;2926.00000000000;2941.00000000000;3007.00000000000;3079.00000000000;3191.00000000000;3193.00000000000;3363.00000000000;3451.00000000000;3394.00000000000;3298.00000000000;3238.00000000000;3382.00000000000;3384.00000000000;3251.00000000000;3094.00000000000;3093.00000000000;3029.00000000000;2766.00000000000;2758.00000000000;2633.00000000000;2510.00000000000;2465.00000000000;2394.00000000000;2329.00000000000;2284.00000000000;2260.00000000000;2221.00000000000;2209.00000000000;2044.00000000000;1986.00000000000;1933.00000000000;1912.00000000000;1817.00000000000;1837.00000000000;1766.00000000000;1693.00000000000;1640.00000000000;1577.00000000000;1592.00000000000;1570.00000000000;1570.00000000000;1601.00000000000;1694.00000000000;1754.00000000000;1744.00000000000;1771.00000000000;1879.00000000000;1902.00000000000;1957.00000000000;1985.00000000000;2057.00000000000;2133.00000000000;2132.00000000000;1957.00000000000;2175.00000000000;2375.00000000000;2462.00000000000;2360.00000000000;2658.00000000000;3166.00000000000;3315.00000000000;3253.00000000000;3269.00000000000;3653.00000000000;3679.00000000000;3923.00000000000;3890.00000000000;3745.00000000000;3711.00000000000;3774.00000000000;3637.00000000000;3319.00000000000;3050.00000000000;3080.00000000000;3118.00000000000;3074.00000000000;3100.00000000000;3061.00000000000;2967.00000000000;2867.00000000000;2823.00000000000;2810.00000000000;2845.00000000000;2852.00000000000;2867.00000000000;2875.00000000000;2819.00000000000;2824.00000000000;2782.00000000000;2831.00000000000;2803.00000000000;2788.00000000000;2813.00000000000;2785.00000000000;2815.00000000000;2831.00000000000;2816.00000000000;2840.00000000000;2843.00000000000;2842.00000000000;2842.00000000000;2846.00000000000;2835.00000000000;2868.00000000000;2848.00000000000;2859.00000000000;2851.00000000000;2841.00000000000;2838.00000000000;2839.00000000000;2848.00000000000;2858.00000000000;2863.00000000000
Gyro Y : 2114.00000000000;2125.00000000000;2092.00000000000;2118.00000000000;2139.00000000000;2132.00000000000;2128.00000000000;2111.00000000000;2123.00000000000;2113.00000000000;2122.00000000000;2131.00000000000;2144.00000000000;2131.00000000000;2142.00000000000;2131.00000000000;2131.00000000000;2122.00000000000;2132.00000000000;2133.00000000000;2146.00000000000;2112.00000000000;2135.00000000000;2138.00000000000;2123.00000000000;2117.00000000000;2136.00000000000;2108.00000000000;2143.00000000000;2100.00000000000;2125.00000000000;2107.00000000000;2101.00000000000;2095.00000000000;2083.00000000000;2075.00000000000;2050.00000000000;2043.00000000000;1983.00000000000;1948.00000000000;1931.00000000000;1887.00000000000;1747.00000000000;1706.00000000000;1689.00000000000;1653.00000000000;1562.00000000000;1442.00000000000;1359.00000000000;1313.00000000000;1250.00000000000;1219.00000000000;1315.00000000000;1353.00000000000;1420.00000000000;1483.00000000000;1508.00000000000;1536.00000000000;1588.00000000000;1693.00000000000;1718.00000000000;1794.00000000000;1843.00000000000;1872.00000000000;1959.00000000000;2063.00000000000;2137.00000000000;2141.00000000000;2099.00000000000;2092.00000000000;2115.00000000000;2114.00000000000;2036.00000000000;1952.00000000000;1884.00000000000;1886.00000000000;1882.00000000000;1852.00000000000;1759.00000000000;1751.00000000000;1804.00000000000;1810.00000000000;1771.00000000000;1805.00000000000;1793.00000000000;1714.00000000000;1696.00000000000;1720.00000000000;1797.00000000000;1783.00000000000;1639.00000000000;1703.00000000000;1876.00000000000;1967.00000000000;1699.00000000000;1458.00000000000;1570.00000000000;1725.00000000000;1555.00000000000;1443.00000000000;1593.00000000000;1887.00000000000;1860.00000000000;1744.00000000000;1865.00000000000;1907.00000000000;1985.00000000000;2034.00000000000;2023.00000000000;1950.00000000000;2051.00000000000;2052.00000000000;2084.00000000000;2125.00000000000;2131.00000000000;2151.00000000000;2182.00000000000;2188.00000000000;2195.00000000000;2202.00000000000;2216.00000000000;2189.00000000000;2180.00000000000;2161.00000000000;2164.00000000000;2170.00000000000;2150.00000000000;2151.00000000000;2155.00000000000;2153.00000000000;2139.00000000000;2152.00000000000;2161.00000000000;2170.00000000000;2158.00000000000;2149.00000000000;2147.00000000000;2177.00000000000;2161.00000000000;2159.00000000000;2157.00000000000;2171.00000000000;2130.00000000000;2157.00000000000;2154.00000000000;2149.00000000000;2171.00000000000;2145.00000000000;2149.00000000000;2129.00000000000
Gyro Z : 1974.00000000000;1959.00000000000;1946.00000000000;1951.00000000000;1956.00000000000;1955.00000000000;1939.00000000000;1934.00000000000;1963.00000000000;1942.00000000000;1978.00000000000;1941.00000000000;1957.00000000000;1952.00000000000;1964.00000000000;1952.00000000000;1958.00000000000;1958.00000000000;1957.00000000000;1953.00000000000;1969.00000000000;1960.00000000000;1961.00000000000;1967.00000000000;1965.00000000000;1964.00000000000;1962.00000000000;1955.00000000000;1976.00000000000;1958.00000000000;1957.00000000000;1948.00000000000;1931.00000000000;1940.00000000000;1955.00000000000;1956.00000000000;1916.00000000000;1892.00000000000;1862.00000000000;1862.00000000000;1765.00000000000;1735.00000000000;1519.00000000000;1483.00000000000;1440.00000000000;1397.00000000000;1228.00000000000;1054.00000000000;880.000000000000;776.000000000000;592.000000000000;400.000000000000;291.000000000000;216.000000000000;185.000000000000;248.000000000000;407.000000000000;537.000000000000;703.000000000000;878.000000000000;983.000000000000;1038.00000000000;1155.00000000000;1347.00000000000;1480.00000000000;1572.00000000000;1715.00000000000;1848.00000000000;2091.00000000000;2252.00000000000;2375.00000000000;2496.00000000000;2683.00000000000;2736.00000000000;2773.00000000000;2783.00000000000;2738.00000000000;2588.00000000000;2463.00000000000;2338.00000000000;2196.00000000000;2064.00000000000;1981.00000000000;1875.00000000000;1760.00000000000;1727.00000000000;1674.00000000000;1590.00000000000;1604.00000000000;1392.00000000000;1347.00000000000;1345.00000000000;1304.00000000000;1199.00000000000;852.000000000000;933.000000000000;1041.00000000000;1082.00000000000;973.000000000000;1048.00000000000;1283.00000000000;1638.00000000000;1717.00000000000;1750.00000000000;2006.00000000000;2059.00000000000;2196.00000000000;2130.00000000000;2155.00000000000;2193.00000000000;2132.00000000000;2095.00000000000;2055.00000000000;2095.00000000000;2025.00000000000;2014.00000000000;1979.00000000000;1940.00000000000;1933.00000000000;1919.00000000000;1911.00000000000;1906.00000000000;1892.00000000000;1857.00000000000;1892.00000000000;1884.00000000000;1867.00000000000;1907.00000000000;1894.00000000000;1905.00000000000;1929.00000000000;1872.00000000000;1898.00000000000;1913.00000000000;1931.00000000000;1913.00000000000;1892.00000000000;1907.00000000000;1909.00000000000;1921.00000000000;1921.00000000000;1932.00000000000;1910.00000000000;1924.00000000000;1923.00000000000;1922.00000000000;1911.00000000000;1906.00000000000;1917.00000000000;1901.00000000000
