COMMAND 2 SAMPLE 1
Accel X : 2823.00000000000;2843.00000000000;2837.00000000000;2845.00000000000;2830.00000000000;2830.00000000000;2821.00000000000;2828.00000000000;2841.00000000000;2834.00000000000;2850.00000000000;2873.00000000000;2855.00000000000;2845.00000000000;2837.00000000000;2835.00000000000;2838.00000000000;2827.00000000000;2820.00000000000;2831.00000000000;2823.00000000000;2833.00000000000;2822.00000000000;2835.00000000000;2844.00000000000;2831.00000000000;2841.00000000000;2837.00000000000;2827.00000000000;2832.00000000000;2829.00000000000;2845.00000000000;2850.00000000000;2830.00000000000;2841.00000000000;2851.00000000000;2832.00000000000;2812.00000000000;2827.00000000000;2891.00000000000;2933.00000000000;2966.00000000000;2848.00000000000;2919.00000000000;2963.00000000000;2934.00000000000;2964.00000000000;2959.00000000000;2899.00000000000;2981.00000000000;2925.00000000000;2818.00000000000;2762.00000000000;2892.00000000000;2878.00000000000;2807.00000000000;2803.00000000000;2774.00000000000;2789.00000000000;2740.00000000000;2652.00000000000;2679.00000000000;2689.00000000000;2661.00000000000;2639.00000000000;2695.00000000000;2633.00000000000;2605.00000000000;2603.00000000000;2657.00000000000;2682.00000000000;2766.00000000000;2811.00000000000;2878.00000000000;2902.00000000000;2898.00000000000;2931.00000000000;2886.00000000000;2895.00000000000;2909.00000000000;2978.00000000000;2880.00000000000;2807.00000000000;2770.00000000000;2797.00000000000;2737.00000000000;2752.00000000000;2842.00000000000;2871.00000000000;2682.00000000000;2633.00000000000;2808.00000000000;2972.00000000000;3013.00000000000;2798.00000000000;2814.00000000000;2929.00000000000;3028.00000000000;3015.00000000000;2956.00000000000;3040.00000000000;3016.00000000000;2954.00000000000;2950.00000000000;2915.00000000000;3009.00000000000;3043.00000000000;3032.00000000000;2963.00000000000;2774.00000000000;2831.00000000000;2857.00000000000;2914.00000000000;2977.00000000000;2955.00000000000;2886.00000000000;2859.00000000000;2854.00000000000;2865.00000000000;2861.00000000000;2852.00000000000;2825.00000000000;2839.00000000000;2849.00000000000;2863.00000000000;2883.00000000000;2867.00000000000;2880.00000000000;2856.00000000000;2858.00000000000;2874.00000000000;2876.00000000000;2873.00000000000;2870.00000000000;2873.00000000000;2865.00000000000;2871.00000000000;2876.00000000000;2864.00000000000;2883.00000000000;2879.00000000000;2874.00000000000;2875.00000000000;2871.00000000000;2880.00000000000;2867.00000000000;2864.00000000000;2866.00000000000;2861.00000000000;2863.00000000000
Accel Y : 2156.00000000000;2154.00000000000;2171.00000000000;2164.00000000000;2150.00000000000;2153.00000000000;2147.00000000000;2170.00000000000;2139.00000000000;2155.00000000000;2149.00000000000;2153.00000000000;2138.00000000000;2136.00000000000;2146.00000000000;2136.00000000000;2147.00000000000;2151.00000000000;2150.00000000000;2115.00000000000;2142.00000000000;2141.00000000000;2139.00000000000;2143.00000000000;2143.00000000000;2164.00000000000;2143.00000000000;2146.00000000000;2146.00000000000;2158.00000000000;2179.00000000000;2184.00000000000;2203.00000000000;2192.00000000000;2209.00000000000;2226.00000000000;2191.00000000000;2213.00000000000;2240.00000000000;2310.00000000000;2342.00000000000;2355.00000000000;2399.00000000000;2433.00000000000;2479.00000000000;2469.00000000000;2506.00000000000;2501.00000000000;2555.00000000000;2609.00000000000;2595.00000000000;2572.00000000000;2580.00000000000;2566.00000000000;2539.00000000000;2540.00000000000;2544.00000000000;2466.00000000000;2421.00000000000;2371.00000000000;2315.00000000000;2251.00000000000;2194.00000000000;2150.00000000000;2060.00000000000;1987.00000000000;1943.00000000000;1901.00000000000;1846.00000000000;1817.00000000000;1811.00000000000;1825.00000000000;1868.00000000000;1899.00000000000;1904.00000000000;1939.00000000000;1979.00000000000;2026.00000000000;2075.00000000000;2129.00000000000;2079.00000000000;2132.00000000000;2191.00000000000;2381.00000000000;2409.00000000000;2459.00000000000;2538.00000000000;2559.00000000000;2631.00000000000;2579.00000000000;2564.00000000000;2629.00000000000;2663.00000000000;2613.00000000000;2547.00000000000;2467.00000000000;2422.00000000000;2437.00000000000;2451.00000000000;2377.00000000000;2344.00000000000;2317.00000000000;2259.00000000000;2285.00000000000;2240.00000000000;2228.00000000000;2234.00000000000;2200.00000000000;2156.00000000000;2134.00000000000;2131.00000000000;2120.00000000000;2128.00000000000;2140.00000000000;2157.00000000000;2159.00000000000;2118.00000000000;2108.00000000000;2128.00000000000;2112.00000000000;2106.00000000000;2114.00000000000;2112.00000000000;2111.00000000000;2122.00000000000;2110.00000000000;2129.00000000000;2123.00000000000;2127.00000000000;2122.00000000000;2112.00000000000;2125.00000000000;2098.00000000000;2119.00000000000;2110.00000000000;2114.00000000000;2111.00000000000;2117.00000000000;2119.00000000000;2103.00000000000;2125.00000000000;2106.00000000000;2113.00000000000;2126.00000000000;2123.00000000000;2121.00000000000;2107.00000000000;2113.00000000000;2130.00000000000;2137.00000000000
Accel Z : 1967.00000000000;1974.00000000000;1957.00000000000;1959.00000000000;1958.00000000000;1960.00000000000;1964.00000000000;1932.00000000000;1932.00000000000;1923.00000000000;1948.00000000000;1940.00000000000;1932.00000000000;1947.00000000000;1944.00000000000;1940.00000000000;1950.00000000000;1944.00000000000;1938.00000000000;1939.00000000000;1945.00000000000;1935.00000000000;1943.00000000000;1955.00000000000;1975.00000000000;1961.00000000000;1954.00000000000;1969.00000000000;1970.00000000000;1990.00000000000;2005.00000000000;2067.00000000000;2117.00000000000;2157.00000000000;2200.00000000000;2247.00000000000;2263.00000000000;2311.00000000000;2357.00000000000;2383.00000000000;2438.00000000000;2472.00000000000;2451.00000000000;2480.00000000000;2458.00000000000;2377.00000000000;2366.00000000000;2348.00000000000;2301.00000000000;2217.00000000000;2183.00000000000;2045.00000000000;2068.00000000000;2020.00000000000;1822.00000000000;1713.00000000000;1655.00000000000;1558.00000000000;1491.00000000000;1393.00000000000;1270.00000000000;1157.00000000000;1059.00000000000;972.000000000000;862.000000000000;831.000000000000;769.000000000000;772.000000000000;753.000000000000;773.000000000000;846.000000000000;933.000000000000;955.000000000000;1051.00000000000;1098.00000000000;1117.00000000000;1182.00000000000;1193.00000000000;1196.00000000000;1259.00000000000;1364.00000000000;1355.00000000000;1345.00000000000;1392.00000000000;1475.00000000000;1506.00000000000;1638.00000000000;1765.00000000000;1835.00000000000;1883.00000000000;1903.00000000000;2152.00000000000;2223.00000000000;2217.00000000000;2183.00000000000;2234.00000000000;2316.00000000000;2371.00000000000;2286.00000000000;2276.00000000000;2306.00000000000;2271.00000000000;2276.00000000000;2188.00000000000;2131.00000000000;2154.00000000000;2124.00000000000;2068.00000000000;2052.00000000000;1958.00000000000;1908.00000000000;1868.00000000000;1840.00000000000;1799.00000000000;1779.00000000000;1727.00000000000;1727.00000000000;1723.00000000000;1733.00000000000;1729.00000000000;1765.00000000000;1757.00000000000;1751.00000000000;1763.00000000000;1777.00000000000;1764.00000000000;1767.00000000000;1789.00000000000;1782.00000000000;1786.00000000000;1806.00000000000;1800.00000000000;1803.00000000000;1787.00000000000;1797.00000000000;1783.00000000000;1800.00000000000;1764.00000000000;1785.00000000000;1792.00000000000;1802.00000000000;1783.00000000000;1798.00000000000;1782.00000000000;1810.00000000000;1788.00000000000;1766.00000000000;1793.00000000000;1798.00000000000;1795.00000000000
Gyro X : 2823.00000000000;2843.00000000000;2837.00000000000;2845.00000000000;2830.00000000000;2830.00000000000;2821.00000000000;2828.00000000000;2841.00000000000;2834.00000000000;2850.00000000000;2873.00000000000;2855.00000000000;2845.00000000000;2837.00000000000;2835.00000000000;2838.00000000000;2827.00000000000;2820.00000000000;2831.00000000000;2823.00000000000;2833.00000000000;2822.00000000000;2835.00000000000;2844.00000000000;2831.00000000000;2841.00000000000;2837.00000000000;2827.00000000000;2832.00000000000;2829.00000000000;2845.00000000000;2850.00000000000;2830.00000000000;2841.00000000000;2851.00000000000;2832.00000000000;2812.00000000000;2827.00000000000;2891.00000000000;2933.00000000000;2966.00000000000;2848.00000000000;2919.00000000000;2963.00000000000;2934.00000000000;2964.00000000000;2959.00000000000;2899.00000000000;2981.00000000000;2925.00000000000;2818.00000000000;2762.00000000000;2892.00000000000;2878.00000000000;2807.00000000000;2803.00000000000;2774.00000000000;2789.00000000000;2740.00000000000;2652.00000000000;2679.00000000000;2689.00000000000;2661.00000000000;2639.00000000000;2695.00000000000;2633.00000000000;2605.00000000000;2603.00000000000;2657.00000000000;2682.00000000000;2766.00000000000;2811.00000000000;2878.00000000000;2902.00000000000;2898.00000000000;2931.00000000000;2886.00000000000;2895.00000000000;2909.00000000000;2978.00000000000;2880.00000000000;2807.00000000000;2770.00000000000;2797.00000000000;2737.00000000000;2752.00000000000;2842.00000000000;2871.00000000000;2682.00000000000;2633.00000000000;2808.00000000000;2972.00000000000;3013.00000000000;2798.00000000000;2814.00000000000;2929.00000000000;3028.00000000000;3015.00000000000;2956.00000000000;3040.00000000000;3016.00000000000;2954.00000000000;2950.00000000000;2915.00000000000;3009.00000000000;3043.00000000000;3032.00000000000;2963.00000000000;2774.00000000000;2831.00000000000;2857.00000000000;2914.00000000000;2977.00000000000;2955.00000000000;2886.00000000000;2859.00000000000;2854.00000000000;2865.00000000000;2861.00000000000;2852.00000000000;2825.00000000000;2839.00000000000;2849.00000000000;2863.00000000000;2883.00000000000;2867.00000000000;2880.00000000000;2856.00000000000;2858.00000000000;2874.00000000000;2876.00000000000;2873.00000000000;2870.00000000000;2873.00000000000;2865.00000000000;2871.00000000000;2876.00000000000;2864.00000000000;2883.00000000000;2879.00000000000;2874.00000000000;2875.00000000000;2871.00000000000;2880.00000000000;2867.00000000000;2864.00000000000;2866.00000000000;2861.00000000000;2863.00000000000
Gyro Y : 2156.00000000000;2154.00000000000;2171.00000000000;2164.00000000000;2150.00000000000;2153.00000000000;2147.00000000000;2170.00000000000;2139.00000000000;2155.00000000000;2149.00000000000;2153.00000000000;2138.00000000000;2136.00000000000;2146.00000000000;2136.00000000000;2147.00000000000;2151.00000000000;2150.00000000000;2115.00000000000;2142.00000000000;2141.00000000000;2139.00000000000;2143.00000000000;2143.00000000000;2164.00000000000;2143.00000000000;2146.00000000000;2146.00000000000;2158.00000000000;2179.00000000000;2184.00000000000;2203.00000000000;2192.00000000000;2209.00000000000;2226.00000000000;2191.00000000000;2213.00000000000;2240.00000000000;2310.00000000000;2342.00000000000;2355.00000000000;2399.00000000000;2433.00000000000;2479.00000000000;2469.00000000000;2506.00000000000;2501.00000000000;2555.00000000000;2609.00000000000;2595.00000000000;2572.00000000000;2580.00000000000;2566.00000000000;2539.00000000000;2540.00000000000;2544.00000000000;2466.00000000000;2421.00000000000;2371.00000000000;2315.00000000000;2251.00000000000;2194.00000000000;2150.00000000000;2060.00000000000;1987.00000000000;1943.00000000000;1901.00000000000;1846.00000000000;1817.00000000000;1811.00000000000;1825.00000000000;1868.00000000000;1899.00000000000;1904.00000000000;1939.00000000000;1979.00000000000;2026.00000000000;2075.00000000000;2129.00000000000;2079.00000000000;2132.00000000000;2191.00000000000;2381.00000000000;2409.00000000000;2459.00000000000;2538.00000000000;2559.00000000000;2631.00000000000;2579.00000000000;2564.00000000000;2629.00000000000;2663.00000000000;2613.00000000000;2547.00000000000;2467.00000000000;2422.00000000000;2437.00000000000;2451.00000000000;2377.00000000000;2344.00000000000;2317.00000000000;2259.00000000000;2285.00000000000;2240.00000000000;2228.00000000000;2234.00000000000;2200.00000000000;2156.00000000000;2134.00000000000;2131.00000000000;2120.00000000000;2128.00000000000;2140.00000000000;2157.00000000000;2159.00000000000;2118.00000000000;2108.00000000000;2128.00000000000;2112.00000000000;2106.00000000000;2114.00000000000;2112.00000000000;2111.00000000000;2122.00000000000;2110.00000000000;2129.00000000000;2123.00000000000;2127.00000000000;2122.00000000000;2112.00000000000;2125.00000000000;2098.00000000000;2119.00000000000;2110.00000000000;2114.00000000000;2111.00000000000;2117.00000000000;2119.00000000000;2103.00000000000;2125.00000000000;2106.00000000000;2113.00000000000;2126.00000000000;2123.00000000000;2121.00000000000;2107.00000000000;2113.00000000000;2130.00000000000;2137.00000000000
Gyro Z : 1967.00000000000;1974.00000000000;1957.00000000000;1959.00000000000;1958.00000000000;1960.00000000000;1964.00000000000;1932.00000000000;1932.00000000000;1923.00000000000;1948.00000000000;1940.00000000000;1932.00000000000;1947.00000000000;1944.00000000000;1940.00000000000;1950.00000000000;1944.00000000000;1938.00000000000;1939.00000000000;1945.00000000000;1935.00000000000;1943.00000000000;1955.00000000000;1975.00000000000;1961.00000000000;1954.00000000000;1969.00000000000;1970.00000000000;1990.00000000000;2005.00000000000;2067.00000000000;2117.00000000000;2157.00000000000;2200.00000000000;2247.00000000000;2263.00000000000;2311.00000000000;2357.00000000000;2383.00000000000;2438.00000000000;2472.00000000000;2451.00000000000;2480.00000000000;2458.00000000000;2377.00000000000;2366.00000000000;2348.00000000000;2301.00000000000;2217.00000000000;2183.00000000000;2045.00000000000;2068.00000000000;2020.00000000000;1822.00000000000;1713.00000000000;1655.00000000000;1558.00000000000;1491.00000000000;1393.00000000000;1270.00000000000;1157.00000000000;1059.00000000000;972.000000000000;862.000000000000;831.000000000000;769.000000000000;772.000000000000;753.000000000000;773.000000000000;846.000000000000;933.000000000000;955.000000000000;1051.00000000000;1098.00000000000;1117.00000000000;1182.00000000000;1193.00000000000;1196.00000000000;1259.00000000000;1364.00000000000;1355.00000000000;1345.00000000000;1392.00000000000;1475.00000000000;1506.00000000000;1638.00000000000;1765.00000000000;1835.00000000000;1883.00000000000;1903.00000000000;2152.00000000000;2223.00000000000;2217.00000000000;2183.00000000000;2234.00000000000;2316.00000000000;2371.00000000000;2286.00000000000;2276.00000000000;2306.00000000000;2271.00000000000;2276.00000000000;2188.00000000000;2131.00000000000;2154.00000000000;2124.00000000000;2068.00000000000;2052.00000000000;1958.00000000000;1908.00000000000;1868.00000000000;1840.00000000000;1799.00000000000;1779.00000000000;1727.00000000000;1727.00000000000;1723.00000000000;1733.00000000000;1729.00000000000;1765.00000000000;1757.00000000000;1751.00000000000;1763.00000000000;1777.00000000000;1764.00000000000;1767.00000000000;1789.00000000000;1782.00000000000;1786.00000000000;1806.00000000000;1800.00000000000;1803.00000000000;1787.00000000000;1797.00000000000;1783.00000000000;1800.00000000000;1764.00000000000;1785.00000000000;1792.00000000000;1802.00000000000;1783.00000000000;1798.00000000000;1782.00000000000;1810.00000000000;1788.00000000000;1766.00000000000;1793.00000000000;1798.00000000000;1795.00000000000
