COMMAND 6 SAMPLE 1
Accel X : 2854.00000000000;2862.00000000000;2875.00000000000;2884.00000000000;2863.00000000000;2854.00000000000;2871.00000000000;2845.00000000000;2842.00000000000;2839.00000000000;2891.00000000000;2875.00000000000;2867.00000000000;2847.00000000000;2877.00000000000;2863.00000000000;2870.00000000000;2854.00000000000;2853.00000000000;2850.00000000000;2867.00000000000;2881.00000000000;2879.00000000000;2859.00000000000;2868.00000000000;2863.00000000000;2903.00000000000;2855.00000000000;2865.00000000000;2859.00000000000;2851.00000000000;2848.00000000000;2865.00000000000;2857.00000000000;2870.00000000000;2855.00000000000;2855.00000000000;2866.00000000000;2876.00000000000;2862.00000000000;2867.00000000000;2873.00000000000;2868.00000000000;2867.00000000000;2842.00000000000;2875.00000000000;2860.00000000000;2842.00000000000;2855.00000000000;2869.00000000000;2894.00000000000;2860.00000000000;2859.00000000000;2842.00000000000;2866.00000000000;2875.00000000000;2867.00000000000;2903.00000000000;3054.00000000000;3181.00000000000;3008.00000000000;2918.00000000000;3023.00000000000;2857.00000000000;2543.00000000000;2235.00000000000;1871.00000000000;1727.00000000000;1982.00000000000;1921.00000000000;1886.00000000000;1808.00000000000;1814.00000000000;1903.00000000000;1802.00000000000;1780.00000000000;1801.00000000000;1788.00000000000;1774.00000000000;1819.00000000000;1784.00000000000;1784.00000000000;1787.00000000000;1689.00000000000;1665.00000000000;1725.00000000000;1977.00000000000;2370.00000000000;2755.00000000000;2986.00000000000;2987.00000000000;3047.00000000000;3207.00000000000;3148.00000000000;3032.00000000000;2885.00000000000;2838.00000000000;2854.00000000000;2884.00000000000;2851.00000000000;2875.00000000000;2891.00000000000;2921.00000000000;2883.00000000000;2854.00000000000;2903.00000000000;2910.00000000000;2922.00000000000;2874.00000000000;2817.00000000000;2879.00000000000;2898.00000000000;2899.00000000000;2918.00000000000;2895.00000000000;2879.00000000000;2878.00000000000;2891.00000000000;2895.00000000000;2913.00000000000;2876.00000000000;2874.00000000000;2867.00000000000;2875.00000000000;2879.00000000000;2850.00000000000;2865.00000000000;2858.00000000000;2900.00000000000;2895.00000000000;2886.00000000000;2899.00000000000;2896.00000000000;2890.00000000000;2857.00000000000;2859.00000000000;2878.00000000000;2878.00000000000;2883.00000000000;2886.00000000000;2862.00000000000;2902.00000000000;2890.00000000000;2887.00000000000;2871.00000000000;2895.00000000000;2874.00000000000;2869.00000000000;2890.00000000000;2880.00000000000
Accel Y : 2095.00000000000;2094.00000000000;2101.00000000000;2102.00000000000;2117.00000000000;2092.00000000000;2093.00000000000;2091.00000000000;2109.00000000000;2108.00000000000;2117.00000000000;2099.00000000000;2086.00000000000;2102.00000000000;2095.00000000000;2093.00000000000;2100.00000000000;2103.00000000000;2098.00000000000;2101.00000000000;2089.00000000000;2092.00000000000;2092.00000000000;2103.00000000000;2106.00000000000;2085.00000000000;2092.00000000000;2075.00000000000;2094.00000000000;2096.00000000000;2096.00000000000;2107.00000000000;2097.00000000000;2087.00000000000;2107.00000000000;2112.00000000000;2112.00000000000;2099.00000000000;2105.00000000000;2103.00000000000;2088.00000000000;2095.00000000000;2103.00000000000;2139.00000000000;2101.00000000000;2103.00000000000;2115.00000000000;2105.00000000000;2097.00000000000;2101.00000000000;2084.00000000000;2108.00000000000;2093.00000000000;2092.00000000000;2092.00000000000;2081.00000000000;2110.00000000000;2099.00000000000;2091.00000000000;2117.00000000000;2099.00000000000;2106.00000000000;2127.00000000000;2104.00000000000;2125.00000000000;2075.00000000000;2084.00000000000;2158.00000000000;2251.00000000000;2295.00000000000;2328.00000000000;2302.00000000000;2336.00000000000;2329.00000000000;2325.00000000000;2298.00000000000;2326.00000000000;2326.00000000000;2347.00000000000;2378.00000000000;2378.00000000000;2373.00000000000;2358.00000000000;2340.00000000000;2344.00000000000;2324.00000000000;2298.00000000000;2303.00000000000;2295.00000000000;2247.00000000000;2167.00000000000;2142.00000000000;2116.00000000000;2106.00000000000;2105.00000000000;2089.00000000000;2076.00000000000;2067.00000000000;2076.00000000000;2059.00000000000;2082.00000000000;2083.00000000000;2104.00000000000;2099.00000000000;2096.00000000000;2074.00000000000;2091.00000000000;2092.00000000000;2077.00000000000;2089.00000000000;2095.00000000000;2087.00000000000;2091.00000000000;2071.00000000000;2095.00000000000;2093.00000000000;2100.00000000000;2094.00000000000;2071.00000000000;2090.00000000000;2099.00000000000;2111.00000000000;2094.00000000000;2089.00000000000;2095.00000000000;2078.00000000000;2094.00000000000;2092.00000000000;2085.00000000000;2092.00000000000;2077.00000000000;2097.00000000000;2086.00000000000;2104.00000000000;2083.00000000000;2077.00000000000;2091.00000000000;2087.00000000000;2058.00000000000;2107.00000000000;2081.00000000000;2091.00000000000;2114.00000000000;2078.00000000000;2096.00000000000;2080.00000000000;2091.00000000000;2101.00000000000;2085.00000000000;2085.00000000000
Accel Z : 1889.00000000000;1896.00000000000;1871.00000000000;1877.00000000000;1876.00000000000;1852.00000000000;1871.00000000000;1889.00000000000;1869.00000000000;1860.00000000000;1887.00000000000;1899.00000000000;1880.00000000000;1875.00000000000;1875.00000000000;1895.00000000000;1869.00000000000;1870.00000000000;1878.00000000000;1891.00000000000;1878.00000000000;1892.00000000000;1870.00000000000;1869.00000000000;1881.00000000000;1871.00000000000;1879.00000000000;1889.00000000000;1906.00000000000;1888.00000000000;1892.00000000000;1887.00000000000;1867.00000000000;1865.00000000000;1872.00000000000;1865.00000000000;1890.00000000000;1883.00000000000;1855.00000000000;1878.00000000000;1883.00000000000;1855.00000000000;1887.00000000000;1881.00000000000;1889.00000000000;1882.00000000000;1883.00000000000;1873.00000000000;1905.00000000000;1880.00000000000;1865.00000000000;1881.00000000000;1869.00000000000;1879.00000000000;1878.00000000000;1865.00000000000;1879.00000000000;1889.00000000000;1905.00000000000;1942.00000000000;1956.00000000000;1977.00000000000;2103.00000000000;2115.00000000000;2175.00000000000;2235.00000000000;2367.00000000000;2526.00000000000;2579.00000000000;2556.00000000000;2604.00000000000;2625.00000000000;2740.00000000000;2738.00000000000;2715.00000000000;2682.00000000000;2620.00000000000;2671.00000000000;2687.00000000000;2699.00000000000;2651.00000000000;2591.00000000000;2529.00000000000;2629.00000000000;2666.00000000000;2556.00000000000;2372.00000000000;2151.00000000000;1936.00000000000;1935.00000000000;1956.00000000000;1842.00000000000;1790.00000000000;1708.00000000000;1687.00000000000;1685.00000000000;1681.00000000000;1626.00000000000;1614.00000000000;1622.00000000000;1630.00000000000;1625.00000000000;1617.00000000000;1627.00000000000;1631.00000000000;1655.00000000000;1650.00000000000;1677.00000000000;1654.00000000000;1617.00000000000;1639.00000000000;1629.00000000000;1647.00000000000;1659.00000000000;1672.00000000000;1676.00000000000;1683.00000000000;1671.00000000000;1667.00000000000;1698.00000000000;1703.00000000000;1690.00000000000;1716.00000000000;1697.00000000000;1707.00000000000;1710.00000000000;1719.00000000000;1690.00000000000;1688.00000000000;1707.00000000000;1694.00000000000;1711.00000000000;1701.00000000000;1711.00000000000;1718.00000000000;1703.00000000000;1715.00000000000;1720.00000000000;1701.00000000000;1702.00000000000;1711.00000000000;1724.00000000000;1725.00000000000;1713.00000000000;1696.00000000000;1689.00000000000;1694.00000000000;1721.00000000000;1699.00000000000;1725.00000000000
Gyro X : 2854.00000000000;2862.00000000000;2875.00000000000;2884.00000000000;2863.00000000000;2854.00000000000;2871.00000000000;2845.00000000000;2842.00000000000;2839.00000000000;2891.00000000000;2875.00000000000;2867.00000000000;2847.00000000000;2877.00000000000;2863.00000000000;2870.00000000000;2854.00000000000;2853.00000000000;2850.00000000000;2867.00000000000;2881.00000000000;2879.00000000000;2859.00000000000;2868.00000000000;2863.00000000000;2903.00000000000;2855.00000000000;2865.00000000000;2859.00000000000;2851.00000000000;2848.00000000000;2865.00000000000;2857.00000000000;2870.00000000000;2855.00000000000;2855.00000000000;2866.00000000000;2876.00000000000;2862.00000000000;2867.00000000000;2873.00000000000;2868.00000000000;2867.00000000000;2842.00000000000;2875.00000000000;2860.00000000000;2842.00000000000;2855.00000000000;2869.00000000000;2894.00000000000;2860.00000000000;2859.00000000000;2842.00000000000;2866.00000000000;2875.00000000000;2867.00000000000;2903.00000000000;3054.00000000000;3181.00000000000;3008.00000000000;2918.00000000000;3023.00000000000;2857.00000000000;2543.00000000000;2235.00000000000;1871.00000000000;1727.00000000000;1982.00000000000;1921.00000000000;1886.00000000000;1808.00000000000;1814.00000000000;1903.00000000000;1802.00000000000;1780.00000000000;1801.00000000000;1788.00000000000;1774.00000000000;1819.00000000000;1784.00000000000;1784.00000000000;1787.00000000000;1689.00000000000;1665.00000000000;1725.00000000000;1977.00000000000;2370.00000000000;2755.00000000000;2986.00000000000;2987.00000000000;3047.00000000000;3207.00000000000;3148.00000000000;3032.00000000000;2885.00000000000;2838.00000000000;2854.00000000000;2884.00000000000;2851.00000000000;2875.00000000000;2891.00000000000;2921.00000000000;2883.00000000000;2854.00000000000;2903.00000000000;2910.00000000000;2922.00000000000;2874.00000000000;2817.00000000000;2879.00000000000;2898.00000000000;2899.00000000000;2918.00000000000;2895.00000000000;2879.00000000000;2878.00000000000;2891.00000000000;2895.00000000000;2913.00000000000;2876.00000000000;2874.00000000000;2867.00000000000;2875.00000000000;2879.00000000000;2850.00000000000;2865.00000000000;2858.00000000000;2900.00000000000;2895.00000000000;2886.00000000000;2899.00000000000;2896.00000000000;2890.00000000000;2857.00000000000;2859.00000000000;2878.00000000000;2878.00000000000;2883.00000000000;2886.00000000000;2862.00000000000;2902.00000000000;2890.00000000000;2887.00000000000;2871.00000000000;2895.00000000000;2874.00000000000;2869.00000000000;2890.00000000000;2880.00000000000
Gyro Y : 2095.00000000000;2094.00000000000;2101.00000000000;2102.00000000000;2117.00000000000;2092.00000000000;2093.00000000000;2091.00000000000;2109.00000000000;2108.00000000000;2117.00000000000;2099.00000000000;2086.00000000000;2102.00000000000;2095.00000000000;2093.00000000000;2100.00000000000;2103.00000000000;2098.00000000000;2101.00000000000;2089.00000000000;2092.00000000000;2092.00000000000;2103.00000000000;2106.00000000000;2085.00000000000;2092.00000000000;2075.00000000000;2094.00000000000;2096.00000000000;2096.00000000000;2107.00000000000;2097.00000000000;2087.00000000000;2107.00000000000;2112.00000000000;2112.00000000000;2099.00000000000;2105.00000000000;2103.00000000000;2088.00000000000;2095.00000000000;2103.00000000000;2139.00000000000;2101.00000000000;2103.00000000000;2115.00000000000;2105.00000000000;2097.00000000000;2101.00000000000;2084.00000000000;2108.00000000000;2093.00000000000;2092.00000000000;2092.00000000000;2081.00000000000;2110.00000000000;2099.00000000000;2091.00000000000;2117.00000000000;2099.00000000000;2106.00000000000;2127.00000000000;2104.00000000000;2125.00000000000;2075.00000000000;2084.00000000000;2158.00000000000;2251.00000000000;2295.00000000000;2328.00000000000;2302.00000000000;2336.00000000000;2329.00000000000;2325.00000000000;2298.00000000000;2326.00000000000;2326.00000000000;2347.00000000000;2378.00000000000;2378.00000000000;2373.00000000000;2358.00000000000;2340.00000000000;2344.00000000000;2324.00000000000;2298.00000000000;2303.00000000000;2295.00000000000;2247.00000000000;2167.00000000000;2142.00000000000;2116.00000000000;2106.00000000000;2105.00000000000;2089.00000000000;2076.00000000000;2067.00000000000;2076.00000000000;2059.00000000000;2082.00000000000;2083.00000000000;2104.00000000000;2099.00000000000;2096.00000000000;2074.00000000000;2091.00000000000;2092.00000000000;2077.00000000000;2089.00000000000;2095.00000000000;2087.00000000000;2091.00000000000;2071.00000000000;2095.00000000000;2093.00000000000;2100.00000000000;2094.00000000000;2071.00000000000;2090.00000000000;2099.00000000000;2111.00000000000;2094.00000000000;2089.00000000000;2095.00000000000;2078.00000000000;2094.00000000000;2092.00000000000;2085.00000000000;2092.00000000000;2077.00000000000;2097.00000000000;2086.00000000000;2104.00000000000;2083.00000000000;2077.00000000000;2091.00000000000;2087.00000000000;2058.00000000000;2107.00000000000;2081.00000000000;2091.00000000000;2114.00000000000;2078.00000000000;2096.00000000000;2080.00000000000;2091.00000000000;2101.00000000000;2085.00000000000;2085.00000000000
Gyro Z : 1889.00000000000;1896.00000000000;1871.00000000000;1877.00000000000;1876.00000000000;1852.00000000000;1871.00000000000;1889.00000000000;1869.00000000000;1860.00000000000;1887.00000000000;1899.00000000000;1880.00000000000;1875.00000000000;1875.00000000000;1895.00000000000;1869.00000000000;1870.00000000000;1878.00000000000;1891.00000000000;1878.00000000000;1892.00000000000;1870.00000000000;1869.00000000000;1881.00000000000;1871.00000000000;1879.00000000000;1889.00000000000;1906.00000000000;1888.00000000000;1892.00000000000;1887.00000000000;1867.00000000000;1865.00000000000;1872.00000000000;1865.00000000000;1890.00000000000;1883.00000000000;1855.00000000000;1878.00000000000;1883.00000000000;1855.00000000000;1887.00000000000;1881.00000000000;1889.00000000000;1882.00000000000;1883.00000000000;1873.00000000000;1905.00000000000;1880.00000000000;1865.00000000000;1881.00000000000;1869.00000000000;1879.00000000000;1878.00000000000;1865.00000000000;1879.00000000000;1889.00000000000;1905.00000000000;1942.00000000000;1956.00000000000;1977.00000000000;2103.00000000000;2115.00000000000;2175.00000000000;2235.00000000000;2367.00000000000;2526.00000000000;2579.00000000000;2556.00000000000;2604.00000000000;2625.00000000000;2740.00000000000;2738.00000000000;2715.00000000000;2682.00000000000;2620.00000000000;2671.00000000000;2687.00000000000;2699.00000000000;2651.00000000000;2591.00000000000;2529.00000000000;2629.00000000000;2666.00000000000;2556.00000000000;2372.00000000000;2151.00000000000;1936.00000000000;1935.00000000000;1956.00000000000;1842.00000000000;1790.00000000000;1708.00000000000;1687.00000000000;1685.00000000000;1681.00000000000;1626.00000000000;1614.00000000000;1622.00000000000;1630.00000000000;1625.00000000000;1617.00000000000;1627.00000000000;1631.00000000000;1655.00000000000;1650.00000000000;1677.00000000000;1654.00000000000;1617.00000000000;1639.00000000000;1629.00000000000;1647.00000000000;1659.00000000000;1672.00000000000;1676.00000000000;1683.00000000000;1671.00000000000;1667.00000000000;1698.00000000000;1703.00000000000;1690.00000000000;1716.00000000000;1697.00000000000;1707.00000000000;1710.00000000000;1719.00000000000;1690.00000000000;1688.00000000000;1707.00000000000;1694.00000000000;1711.00000000000;1701.00000000000;1711.00000000000;1718.00000000000;1703.00000000000;1715.00000000000;1720.00000000000;1701.00000000000;1702.00000000000;1711.00000000000;1724.00000000000;1725.00000000000;1713.00000000000;1696.00000000000;1689.00000000000;1694.00000000000;1721.00000000000;1699.00000000000;1725.00000000000
