COMMAND 6 SAMPLE 1
Accel X : 2896.00000000000;2887.00000000000;2883.00000000000;2883.00000000000;2880.00000000000;2874.00000000000;2874.00000000000;2861.00000000000;2883.00000000000;2875.00000000000;2863.00000000000;2853.00000000000;2849.00000000000;2859.00000000000;2870.00000000000;2869.00000000000;2853.00000000000;2874.00000000000;2854.00000000000;2877.00000000000;2877.00000000000;2861.00000000000;2868.00000000000;2869.00000000000;2852.00000000000;2872.00000000000;2866.00000000000;2889.00000000000;2856.00000000000;2856.00000000000;2846.00000000000;2874.00000000000;2879.00000000000;2879.00000000000;2876.00000000000;2891.00000000000;2894.00000000000;2887.00000000000;2864.00000000000;2830.00000000000;2876.00000000000;2865.00000000000;2843.00000000000;2795.00000000000;2827.00000000000;2863.00000000000;2905.00000000000;2806.00000000000;2643.00000000000;2728.00000000000;2622.00000000000;2647.00000000000;2549.00000000000;2272.00000000000;2236.00000000000;2173.00000000000;2038.00000000000;2062.00000000000;2114.00000000000;2067.00000000000;2001.00000000000;1972.00000000000;1964.00000000000;1967.00000000000;1953.00000000000;1903.00000000000;1913.00000000000;2013.00000000000;1990.00000000000;1891.00000000000;1899.00000000000;1916.00000000000;1943.00000000000;1985.00000000000;1953.00000000000;1962.00000000000;1958.00000000000;1996.00000000000;2001.00000000000;2003.00000000000;1991.00000000000;1981.00000000000;1987.00000000000;1980.00000000000;1982.00000000000;1965.00000000000;1999.00000000000;2006.00000000000;2028.00000000000;2012.00000000000;2030.00000000000;2031.00000000000;2005.00000000000;2048.00000000000;2067.00000000000;2061.00000000000;2004.00000000000;2023.00000000000;2113.00000000000;2123.00000000000;2058.00000000000;1968.00000000000;2147.00000000000;2315.00000000000;2302.00000000000;2213.00000000000;2264.00000000000;2328.00000000000;2418.00000000000;2452.00000000000;2522.00000000000;2589.00000000000;2612.00000000000;2662.00000000000;2807.00000000000;2762.00000000000;2853.00000000000;2913.00000000000;2962.00000000000;2907.00000000000;2853.00000000000;2834.00000000000;2874.00000000000;2892.00000000000;2905.00000000000;2865.00000000000;2832.00000000000;2856.00000000000;2899.00000000000;2935.00000000000;2885.00000000000;2850.00000000000;2870.00000000000;2853.00000000000;2863.00000000000;2867.00000000000;2862.00000000000;2849.00000000000;2841.00000000000;2859.00000000000;2880.00000000000;2875.00000000000;2853.00000000000;2853.00000000000;2859.00000000000;2867.00000000000;2887.00000000000;2890.00000000000;2858.00000000000;2847.00000000000
Accel Y : 2066.00000000000;2081.00000000000;2072.00000000000;2072.00000000000;2062.00000000000;2065.00000000000;2071.00000000000;2057.00000000000;2080.00000000000;2070.00000000000;2057.00000000000;2049.00000000000;2051.00000000000;2046.00000000000;2082.00000000000;2069.00000000000;2075.00000000000;2075.00000000000;2053.00000000000;2073.00000000000;2074.00000000000;2069.00000000000;2068.00000000000;2069.00000000000;2079.00000000000;2053.00000000000;2059.00000000000;2055.00000000000;2054.00000000000;2058.00000000000;2071.00000000000;2060.00000000000;2079.00000000000;2086.00000000000;2073.00000000000;2075.00000000000;2061.00000000000;2072.00000000000;2095.00000000000;2062.00000000000;2103.00000000000;2070.00000000000;2069.00000000000;2073.00000000000;2095.00000000000;2080.00000000000;2089.00000000000;2091.00000000000;2081.00000000000;2073.00000000000;2061.00000000000;2110.00000000000;2068.00000000000;2097.00000000000;2100.00000000000;2108.00000000000;2153.00000000000;2210.00000000000;2252.00000000000;2246.00000000000;2235.00000000000;2263.00000000000;2223.00000000000;2240.00000000000;2205.00000000000;2238.00000000000;2216.00000000000;2256.00000000000;2217.00000000000;2249.00000000000;2259.00000000000;2253.00000000000;2258.00000000000;2289.00000000000;2294.00000000000;2295.00000000000;2286.00000000000;2297.00000000000;2303.00000000000;2285.00000000000;2271.00000000000;2245.00000000000;2286.00000000000;2279.00000000000;2267.00000000000;2291.00000000000;2292.00000000000;2297.00000000000;2274.00000000000;2261.00000000000;2260.00000000000;2249.00000000000;2234.00000000000;2261.00000000000;2260.00000000000;2242.00000000000;2215.00000000000;2230.00000000000;2227.00000000000;2211.00000000000;2212.00000000000;2203.00000000000;2207.00000000000;2217.00000000000;2205.00000000000;2182.00000000000;2204.00000000000;2175.00000000000;2182.00000000000;2186.00000000000;2175.00000000000;2143.00000000000;2147.00000000000;2130.00000000000;2117.00000000000;2103.00000000000;2107.00000000000;2074.00000000000;2069.00000000000;2065.00000000000;2058.00000000000;2051.00000000000;2050.00000000000;2031.00000000000;2051.00000000000;1995.00000000000;2002.00000000000;2027.00000000000;2024.00000000000;2029.00000000000;2033.00000000000;2023.00000000000;2023.00000000000;2015.00000000000;2036.00000000000;2022.00000000000;2022.00000000000;2019.00000000000;1985.00000000000;2043.00000000000;2036.00000000000;2022.00000000000;2037.00000000000;2031.00000000000;2027.00000000000;2036.00000000000;2035.00000000000;2032.00000000000;2049.00000000000;2055.00000000000
Accel Z : 1853.00000000000;1846.00000000000;1861.00000000000;1863.00000000000;1854.00000000000;1857.00000000000;1849.00000000000;1867.00000000000;1882.00000000000;1867.00000000000;1859.00000000000;1868.00000000000;1848.00000000000;1844.00000000000;1866.00000000000;1849.00000000000;1850.00000000000;1856.00000000000;1867.00000000000;1852.00000000000;1839.00000000000;1844.00000000000;1855.00000000000;1860.00000000000;1835.00000000000;1871.00000000000;1870.00000000000;1855.00000000000;1839.00000000000;1862.00000000000;1837.00000000000;1864.00000000000;1880.00000000000;1870.00000000000;1882.00000000000;1899.00000000000;1898.00000000000;1909.00000000000;1934.00000000000;1967.00000000000;1966.00000000000;2005.00000000000;2014.00000000000;2059.00000000000;2075.00000000000;2115.00000000000;2128.00000000000;2203.00000000000;2230.00000000000;2295.00000000000;2318.00000000000;2415.00000000000;2401.00000000000;2437.00000000000;2473.00000000000;2500.00000000000;2550.00000000000;2572.00000000000;2637.00000000000;2662.00000000000;2713.00000000000;2735.00000000000;2687.00000000000;2670.00000000000;2615.00000000000;2628.00000000000;2651.00000000000;2677.00000000000;2672.00000000000;2648.00000000000;2608.00000000000;2620.00000000000;2643.00000000000;2667.00000000000;2647.00000000000;2659.00000000000;2652.00000000000;2671.00000000000;2660.00000000000;2684.00000000000;2658.00000000000;2663.00000000000;2646.00000000000;2669.00000000000;2683.00000000000;2667.00000000000;2640.00000000000;2657.00000000000;2684.00000000000;2689.00000000000;2675.00000000000;2651.00000000000;2640.00000000000;2657.00000000000;2656.00000000000;2649.00000000000;2647.00000000000;2642.00000000000;2641.00000000000;2634.00000000000;2649.00000000000;2616.00000000000;2586.00000000000;2604.00000000000;2596.00000000000;2535.00000000000;2519.00000000000;2470.00000000000;2446.00000000000;2436.00000000000;2369.00000000000;2293.00000000000;2305.00000000000;2237.00000000000;2179.00000000000;2155.00000000000;2103.00000000000;2036.00000000000;1975.00000000000;1979.00000000000;1933.00000000000;1912.00000000000;1885.00000000000;1882.00000000000;1900.00000000000;1856.00000000000;1851.00000000000;1841.00000000000;1832.00000000000;1838.00000000000;1853.00000000000;1831.00000000000;1822.00000000000;1822.00000000000;1820.00000000000;1834.00000000000;1843.00000000000;1816.00000000000;1824.00000000000;1836.00000000000;1837.00000000000;1869.00000000000;1818.00000000000;1863.00000000000;1858.00000000000;1847.00000000000;1859.00000000000;1867.00000000000;1858.00000000000;1842.00000000000
Gyro X : 2896.00000000000;2887.00000000000;2883.00000000000;2883.00000000000;2880.00000000000;2874.00000000000;2874.00000000000;2861.00000000000;2883.00000000000;2875.00000000000;2863.00000000000;2853.00000000000;2849.00000000000;2859.00000000000;2870.00000000000;2869.00000000000;2853.00000000000;2874.00000000000;2854.00000000000;2877.00000000000;2877.00000000000;2861.00000000000;2868.00000000000;2869.00000000000;2852.00000000000;2872.00000000000;2866.00000000000;2889.00000000000;2856.00000000000;2856.00000000000;2846.00000000000;2874.00000000000;2879.00000000000;2879.00000000000;2876.00000000000;2891.00000000000;2894.00000000000;2887.00000000000;2864.00000000000;2830.00000000000;2876.00000000000;2865.00000000000;2843.00000000000;2795.00000000000;2827.00000000000;2863.00000000000;2905.00000000000;2806.00000000000;2643.00000000000;2728.00000000000;2622.00000000000;2647.00000000000;2549.00000000000;2272.00000000000;2236.00000000000;2173.00000000000;2038.00000000000;2062.00000000000;2114.00000000000;2067.00000000000;2001.00000000000;1972.00000000000;1964.00000000000;1967.00000000000;1953.00000000000;1903.00000000000;1913.00000000000;2013.00000000000;1990.00000000000;1891.00000000000;1899.00000000000;1916.00000000000;1943.00000000000;1985.00000000000;1953.00000000000;1962.00000000000;1958.00000000000;1996.00000000000;2001.00000000000;2003.00000000000;1991.00000000000;1981.00000000000;1987.00000000000;1980.00000000000;1982.00000000000;1965.00000000000;1999.00000000000;2006.00000000000;2028.00000000000;2012.00000000000;2030.00000000000;2031.00000000000;2005.00000000000;2048.00000000000;2067.00000000000;2061.00000000000;2004.00000000000;2023.00000000000;2113.00000000000;2123.00000000000;2058.00000000000;1968.00000000000;2147.00000000000;2315.00000000000;2302.00000000000;2213.00000000000;2264.00000000000;2328.00000000000;2418.00000000000;2452.00000000000;2522.00000000000;2589.00000000000;2612.00000000000;2662.00000000000;2807.00000000000;2762.00000000000;2853.00000000000;2913.00000000000;2962.00000000000;2907.00000000000;2853.00000000000;2834.00000000000;2874.00000000000;2892.00000000000;2905.00000000000;2865.00000000000;2832.00000000000;2856.00000000000;2899.00000000000;2935.00000000000;2885.00000000000;2850.00000000000;2870.00000000000;2853.00000000000;2863.00000000000;2867.00000000000;2862.00000000000;2849.00000000000;2841.00000000000;2859.00000000000;2880.00000000000;2875.00000000000;2853.00000000000;2853.00000000000;2859.00000000000;2867.00000000000;2887.00000000000;2890.00000000000;2858.00000000000;2847.00000000000
Gyro Y : 2066.00000000000;2081.00000000000;2072.00000000000;2072.00000000000;2062.00000000000;2065.00000000000;2071.00000000000;2057.00000000000;2080.00000000000;2070.00000000000;2057.00000000000;2049.00000000000;2051.00000000000;2046.00000000000;2082.00000000000;2069.00000000000;2075.00000000000;2075.00000000000;2053.00000000000;2073.00000000000;2074.00000000000;2069.00000000000;2068.00000000000;2069.00000000000;2079.00000000000;2053.00000000000;2059.00000000000;2055.00000000000;2054.00000000000;2058.00000000000;2071.00000000000;2060.00000000000;2079.00000000000;2086.00000000000;2073.00000000000;2075.00000000000;2061.00000000000;2072.00000000000;2095.00000000000;2062.00000000000;2103.00000000000;2070.00000000000;2069.00000000000;2073.00000000000;2095.00000000000;2080.00000000000;2089.00000000000;2091.00000000000;2081.00000000000;2073.00000000000;2061.00000000000;2110.00000000000;2068.00000000000;2097.00000000000;2100.00000000000;2108.00000000000;2153.00000000000;2210.00000000000;2252.00000000000;2246.00000000000;2235.00000000000;2263.00000000000;2223.00000000000;2240.00000000000;2205.00000000000;2238.00000000000;2216.00000000000;2256.00000000000;2217.00000000000;2249.00000000000;2259.00000000000;2253.00000000000;2258.00000000000;2289.00000000000;2294.00000000000;2295.00000000000;2286.00000000000;2297.00000000000;2303.00000000000;2285.00000000000;2271.00000000000;2245.00000000000;2286.00000000000;2279.00000000000;2267.00000000000;2291.00000000000;2292.00000000000;2297.00000000000;2274.00000000000;2261.00000000000;2260.00000000000;2249.00000000000;2234.00000000000;2261.00000000000;2260.00000000000;2242.00000000000;2215.00000000000;2230.00000000000;2227.00000000000;2211.00000000000;2212.00000000000;2203.00000000000;2207.00000000000;2217.00000000000;2205.00000000000;2182.00000000000;2204.00000000000;2175.00000000000;2182.00000000000;2186.00000000000;2175.00000000000;2143.00000000000;2147.00000000000;2130.00000000000;2117.00000000000;2103.00000000000;2107.00000000000;2074.00000000000;2069.00000000000;2065.00000000000;2058.00000000000;2051.00000000000;2050.00000000000;2031.00000000000;2051.00000000000;1995.00000000000;2002.00000000000;2027.00000000000;2024.00000000000;2029.00000000000;2033.00000000000;2023.00000000000;2023.00000000000;2015.00000000000;2036.00000000000;2022.00000000000;2022.00000000000;2019.00000000000;1985.00000000000;2043.00000000000;2036.00000000000;2022.00000000000;2037.00000000000;2031.00000000000;2027.00000000000;2036.00000000000;2035.00000000000;2032.00000000000;2049.00000000000;2055.00000000000
Gyro Z : 1853.00000000000;1846.00000000000;1861.00000000000;1863.00000000000;1854.00000000000;1857.00000000000;1849.00000000000;1867.00000000000;1882.00000000000;1867.00000000000;1859.00000000000;1868.00000000000;1848.00000000000;1844.00000000000;1866.00000000000;1849.00000000000;1850.00000000000;1856.00000000000;1867.00000000000;1852.00000000000;1839.00000000000;1844.00000000000;1855.00000000000;1860.00000000000;1835.00000000000;1871.00000000000;1870.00000000000;1855.00000000000;1839.00000000000;1862.00000000000;1837.00000000000;1864.00000000000;1880.00000000000;1870.00000000000;1882.00000000000;1899.00000000000;1898.00000000000;1909.00000000000;1934.00000000000;1967.00000000000;1966.00000000000;2005.00000000000;2014.00000000000;2059.00000000000;2075.00000000000;2115.00000000000;2128.00000000000;2203.00000000000;2230.00000000000;2295.00000000000;2318.00000000000;2415.00000000000;2401.00000000000;2437.00000000000;2473.00000000000;2500.00000000000;2550.00000000000;2572.00000000000;2637.00000000000;2662.00000000000;2713.00000000000;2735.00000000000;2687.00000000000;2670.00000000000;2615.00000000000;2628.00000000000;2651.00000000000;2677.00000000000;2672.00000000000;2648.00000000000;2608.00000000000;2620.00000000000;2643.00000000000;2667.00000000000;2647.00000000000;2659.00000000000;2652.00000000000;2671.00000000000;2660.00000000000;2684.00000000000;2658.00000000000;2663.00000000000;2646.00000000000;2669.00000000000;2683.00000000000;2667.00000000000;2640.00000000000;2657.00000000000;2684.00000000000;2689.00000000000;2675.00000000000;2651.00000000000;2640.00000000000;2657.00000000000;2656.00000000000;2649.00000000000;2647.00000000000;2642.00000000000;2641.00000000000;2634.00000000000;2649.00000000000;2616.00000000000;2586.00000000000;2604.00000000000;2596.00000000000;2535.00000000000;2519.00000000000;2470.00000000000;2446.00000000000;2436.00000000000;2369.00000000000;2293.00000000000;2305.00000000000;2237.00000000000;2179.00000000000;2155.00000000000;2103.00000000000;2036.00000000000;1975.00000000000;1979.00000000000;1933.00000000000;1912.00000000000;1885.00000000000;1882.00000000000;1900.00000000000;1856.00000000000;1851.00000000000;1841.00000000000;1832.00000000000;1838.00000000000;1853.00000000000;1831.00000000000;1822.00000000000;1822.00000000000;1820.00000000000;1834.00000000000;1843.00000000000;1816.00000000000;1824.00000000000;1836.00000000000;1837.00000000000;1869.00000000000;1818.00000000000;1863.00000000000;1858.00000000000;1847.00000000000;1859.00000000000;1867.00000000000;1858.00000000000;1842.00000000000
