COMMAND 3 SAMPLE 1
Accel X : 2843.00000000000;2855.00000000000;2847.00000000000;2845.00000000000;2844.00000000000;2823.00000000000;2835.00000000000;2819.00000000000;2836.00000000000;2819.00000000000;2830.00000000000;2848.00000000000;2843.00000000000;2847.00000000000;2849.00000000000;2846.00000000000;2861.00000000000;2834.00000000000;2845.00000000000;2835.00000000000;2843.00000000000;2843.00000000000;2841.00000000000;2832.00000000000;2856.00000000000;2830.00000000000;2828.00000000000;2827.00000000000;2833.00000000000;2846.00000000000;2845.00000000000;2845.00000000000;2851.00000000000;2843.00000000000;2849.00000000000;2847.00000000000;2832.00000000000;2853.00000000000;2852.00000000000;2833.00000000000;2839.00000000000;2829.00000000000;2859.00000000000;2827.00000000000;2822.00000000000;2850.00000000000;2947.00000000000;2986.00000000000;2902.00000000000;3013.00000000000;3142.00000000000;3201.00000000000;3219.00000000000;3157.00000000000;3179.00000000000;3153.00000000000;3143.00000000000;2995.00000000000;2939.00000000000;2846.00000000000;2706.00000000000;2583.00000000000;2621.00000000000;2638.00000000000;2621.00000000000;2587.00000000000;2487.00000000000;2447.00000000000;2432.00000000000;2280.00000000000;2179.00000000000;2098.00000000000;1935.00000000000;1822.00000000000;1716.00000000000;1610.00000000000;1591.00000000000;1521.00000000000;1520.00000000000;1497.00000000000;1459.00000000000;1459.00000000000;1490.00000000000;1536.00000000000;1454.00000000000;1524.00000000000;1655.00000000000;1757.00000000000;1631.00000000000;1599.00000000000;1888.00000000000;1957.00000000000;1947.00000000000;1953.00000000000;2173.00000000000;2289.00000000000;2264.00000000000;2410.00000000000;2643.00000000000;2707.00000000000;2938.00000000000;3266.00000000000;3503.00000000000;3711.00000000000;3416.00000000000;3830.00000000000;4078.00000000000;4075.00000000000;3919.00000000000;3629.00000000000;3436.00000000000;3375.00000000000;3330.00000000000;3161.00000000000;3047.00000000000;2977.00000000000;2954.00000000000;2977.00000000000;2999.00000000000;2918.00000000000;2867.00000000000;2847.00000000000;2819.00000000000;2822.00000000000;2808.00000000000;2821.00000000000;2848.00000000000;2856.00000000000;2863.00000000000;2878.00000000000;2883.00000000000;2896.00000000000;2886.00000000000;2871.00000000000;2890.00000000000;2864.00000000000;2865.00000000000;2843.00000000000;2871.00000000000;2857.00000000000;2883.00000000000;2873.00000000000;2878.00000000000;2858.00000000000;2873.00000000000;2870.00000000000;2869.00000000000;2863.00000000000;2875.00000000000;2858.00000000000
Accel Y : 2120.00000000000;2140.00000000000;2143.00000000000;2120.00000000000;2118.00000000000;2109.00000000000;2119.00000000000;2123.00000000000;2098.00000000000;2104.00000000000;2108.00000000000;2100.00000000000;2099.00000000000;2107.00000000000;2118.00000000000;2109.00000000000;2083.00000000000;2107.00000000000;2116.00000000000;2115.00000000000;2124.00000000000;2128.00000000000;2091.00000000000;2104.00000000000;2098.00000000000;2093.00000000000;2111.00000000000;2122.00000000000;2111.00000000000;2110.00000000000;2107.00000000000;2122.00000000000;2097.00000000000;2111.00000000000;2114.00000000000;2103.00000000000;2098.00000000000;2098.00000000000;2135.00000000000;2079.00000000000;2073.00000000000;2050.00000000000;2041.00000000000;2008.00000000000;1991.00000000000;1961.00000000000;1949.00000000000;1906.00000000000;1850.00000000000;1817.00000000000;1741.00000000000;1664.00000000000;1644.00000000000;1599.00000000000;1547.00000000000;1506.00000000000;1390.00000000000;1352.00000000000;1469.00000000000;1513.00000000000;1564.00000000000;1599.00000000000;1630.00000000000;1671.00000000000;1745.00000000000;1819.00000000000;1880.00000000000;1893.00000000000;1912.00000000000;1918.00000000000;1970.00000000000;2025.00000000000;2047.00000000000;2090.00000000000;2134.00000000000;2180.00000000000;2150.00000000000;2158.00000000000;2144.00000000000;2152.00000000000;2084.00000000000;2037.00000000000;1977.00000000000;1891.00000000000;1864.00000000000;1839.00000000000;1791.00000000000;1819.00000000000;1748.00000000000;1810.00000000000;1832.00000000000;1850.00000000000;1771.00000000000;1781.00000000000;1804.00000000000;1861.00000000000;1781.00000000000;1701.00000000000;1847.00000000000;1976.00000000000;1831.00000000000;1728.00000000000;1671.00000000000;1873.00000000000;1744.00000000000;1647.00000000000;1701.00000000000;1753.00000000000;1822.00000000000;1710.00000000000;1693.00000000000;1765.00000000000;1815.00000000000;1897.00000000000;1942.00000000000;1955.00000000000;1972.00000000000;1992.00000000000;2031.00000000000;2036.00000000000;2051.00000000000;2054.00000000000;2052.00000000000;2043.00000000000;2047.00000000000;2042.00000000000;2034.00000000000;2043.00000000000;2040.00000000000;2057.00000000000;2043.00000000000;2056.00000000000;2067.00000000000;2066.00000000000;2081.00000000000;2078.00000000000;2060.00000000000;2070.00000000000;2072.00000000000;2069.00000000000;2089.00000000000;2079.00000000000;2103.00000000000;2108.00000000000;2097.00000000000;2102.00000000000;2087.00000000000;2090.00000000000;2089.00000000000;2082.00000000000
Accel Z : 1971.00000000000;1974.00000000000;1957.00000000000;1986.00000000000;1984.00000000000;1965.00000000000;1969.00000000000;1928.00000000000;1965.00000000000;1962.00000000000;1965.00000000000;1963.00000000000;1970.00000000000;1969.00000000000;1953.00000000000;1983.00000000000;1946.00000000000;1983.00000000000;1959.00000000000;1964.00000000000;1947.00000000000;1952.00000000000;1948.00000000000;1967.00000000000;1975.00000000000;1968.00000000000;1958.00000000000;1949.00000000000;1971.00000000000;1944.00000000000;1959.00000000000;1939.00000000000;1947.00000000000;1960.00000000000;1942.00000000000;1936.00000000000;1948.00000000000;1935.00000000000;1927.00000000000;1898.00000000000;1916.00000000000;1910.00000000000;1898.00000000000;1854.00000000000;1806.00000000000;1692.00000000000;1674.00000000000;1536.00000000000;1351.00000000000;1238.00000000000;1099.00000000000;996.000000000000;851.000000000000;664.000000000000;511.000000000000;327.000000000000;211.000000000000;26.0000000000000;22.0000000000000;24.0000000000000;23.0000000000000;28.0000000000000;174.000000000000;390.000000000000;504.000000000000;641.000000000000;767.000000000000;919.000000000000;1116.00000000000;1298.00000000000;1391.00000000000;1588.00000000000;1796.00000000000;1904.00000000000;2063.00000000000;2210.00000000000;2357.00000000000;2480.00000000000;2597.00000000000;2611.00000000000;2590.00000000000;2601.00000000000;2571.00000000000;2534.00000000000;2393.00000000000;2309.00000000000;2247.00000000000;2101.00000000000;2051.00000000000;1890.00000000000;1929.00000000000;1807.00000000000;1686.00000000000;1629.00000000000;1749.00000000000;1662.00000000000;1598.00000000000;1601.00000000000;1770.00000000000;1749.00000000000;1664.00000000000;1614.00000000000;1821.00000000000;1901.00000000000;1823.00000000000;1901.00000000000;1932.00000000000;2141.00000000000;2244.00000000000;2261.00000000000;2180.00000000000;2194.00000000000;2183.00000000000;2173.00000000000;2079.00000000000;2035.00000000000;1953.00000000000;1929.00000000000;1892.00000000000;1866.00000000000;1820.00000000000;1821.00000000000;1824.00000000000;1807.00000000000;1815.00000000000;1825.00000000000;1803.00000000000;1825.00000000000;1826.00000000000;1846.00000000000;1809.00000000000;1833.00000000000;1851.00000000000;1850.00000000000;1876.00000000000;1854.00000000000;1856.00000000000;1867.00000000000;1863.00000000000;1861.00000000000;1841.00000000000;1858.00000000000;1874.00000000000;1881.00000000000;1889.00000000000;1864.00000000000;1856.00000000000;1847.00000000000;1864.00000000000;1843.00000000000
Gyro X : 2843.00000000000;2855.00000000000;2847.00000000000;2845.00000000000;2844.00000000000;2823.00000000000;2835.00000000000;2819.00000000000;2836.00000000000;2819.00000000000;2830.00000000000;2848.00000000000;2843.00000000000;2847.00000000000;2849.00000000000;2846.00000000000;2861.00000000000;2834.00000000000;2845.00000000000;2835.00000000000;2843.00000000000;2843.00000000000;2841.00000000000;2832.00000000000;2856.00000000000;2830.00000000000;2828.00000000000;2827.00000000000;2833.00000000000;2846.00000000000;2845.00000000000;2845.00000000000;2851.00000000000;2843.00000000000;2849.00000000000;2847.00000000000;2832.00000000000;2853.00000000000;2852.00000000000;2833.00000000000;2839.00000000000;2829.00000000000;2859.00000000000;2827.00000000000;2822.00000000000;2850.00000000000;2947.00000000000;2986.00000000000;2902.00000000000;3013.00000000000;3142.00000000000;3201.00000000000;3219.00000000000;3157.00000000000;3179.00000000000;3153.00000000000;3143.00000000000;2995.00000000000;2939.00000000000;2846.00000000000;2706.00000000000;2583.00000000000;2621.00000000000;2638.00000000000;2621.00000000000;2587.00000000000;2487.00000000000;2447.00000000000;2432.00000000000;2280.00000000000;2179.00000000000;2098.00000000000;1935.00000000000;1822.00000000000;1716.00000000000;1610.00000000000;1591.00000000000;1521.00000000000;1520.00000000000;1497.00000000000;1459.00000000000;1459.00000000000;1490.00000000000;1536.00000000000;1454.00000000000;1524.00000000000;1655.00000000000;1757.00000000000;1631.00000000000;1599.00000000000;1888.00000000000;1957.00000000000;1947.00000000000;1953.00000000000;2173.00000000000;2289.00000000000;2264.00000000000;2410.00000000000;2643.00000000000;2707.00000000000;2938.00000000000;3266.00000000000;3503.00000000000;3711.00000000000;3416.00000000000;3830.00000000000;4078.00000000000;4075.00000000000;3919.00000000000;3629.00000000000;3436.00000000000;3375.00000000000;3330.00000000000;3161.00000000000;3047.00000000000;2977.00000000000;2954.00000000000;2977.00000000000;2999.00000000000;2918.00000000000;2867.00000000000;2847.00000000000;2819.00000000000;2822.00000000000;2808.00000000000;2821.00000000000;2848.00000000000;2856.00000000000;2863.00000000000;2878.00000000000;2883.00000000000;2896.00000000000;2886.00000000000;2871.00000000000;2890.00000000000;2864.00000000000;2865.00000000000;2843.00000000000;2871.00000000000;2857.00000000000;2883.00000000000;2873.00000000000;2878.00000000000;2858.00000000000;2873.00000000000;2870.00000000000;2869.00000000000;2863.00000000000;2875.00000000000;2858.00000000000
Gyro Y : 2120.00000000000;2140.00000000000;2143.00000000000;2120.00000000000;2118.00000000000;2109.00000000000;2119.00000000000;2123.00000000000;2098.00000000000;2104.00000000000;2108.00000000000;2100.00000000000;2099.00000000000;2107.00000000000;2118.00000000000;2109.00000000000;2083.00000000000;2107.00000000000;2116.00000000000;2115.00000000000;2124.00000000000;2128.00000000000;2091.00000000000;2104.00000000000;2098.00000000000;2093.00000000000;2111.00000000000;2122.00000000000;2111.00000000000;2110.00000000000;2107.00000000000;2122.00000000000;2097.00000000000;2111.00000000000;2114.00000000000;2103.00000000000;2098.00000000000;2098.00000000000;2135.00000000000;2079.00000000000;2073.00000000000;2050.00000000000;2041.00000000000;2008.00000000000;1991.00000000000;1961.00000000000;1949.00000000000;1906.00000000000;1850.00000000000;1817.00000000000;1741.00000000000;1664.00000000000;1644.00000000000;1599.00000000000;1547.00000000000;1506.00000000000;1390.00000000000;1352.00000000000;1469.00000000000;1513.00000000000;1564.00000000000;1599.00000000000;1630.00000000000;1671.00000000000;1745.00000000000;1819.00000000000;1880.00000000000;1893.00000000000;1912.00000000000;1918.00000000000;1970.00000000000;2025.00000000000;2047.00000000000;2090.00000000000;2134.00000000000;2180.00000000000;2150.00000000000;2158.00000000000;2144.00000000000;2152.00000000000;2084.00000000000;2037.00000000000;1977.00000000000;1891.00000000000;1864.00000000000;1839.00000000000;1791.00000000000;1819.00000000000;1748.00000000000;1810.00000000000;1832.00000000000;1850.00000000000;1771.00000000000;1781.00000000000;1804.00000000000;1861.00000000000;1781.00000000000;1701.00000000000;1847.00000000000;1976.00000000000;1831.00000000000;1728.00000000000;1671.00000000000;1873.00000000000;1744.00000000000;1647.00000000000;1701.00000000000;1753.00000000000;1822.00000000000;1710.00000000000;1693.00000000000;1765.00000000000;1815.00000000000;1897.00000000000;1942.00000000000;1955.00000000000;1972.00000000000;1992.00000000000;2031.00000000000;2036.00000000000;2051.00000000000;2054.00000000000;2052.00000000000;2043.00000000000;2047.00000000000;2042.00000000000;2034.00000000000;2043.00000000000;2040.00000000000;2057.00000000000;2043.00000000000;2056.00000000000;2067.00000000000;2066.00000000000;2081.00000000000;2078.00000000000;2060.00000000000;2070.00000000000;2072.00000000000;2069.00000000000;2089.00000000000;2079.00000000000;2103.00000000000;2108.00000000000;2097.00000000000;2102.00000000000;2087.00000000000;2090.00000000000;2089.00000000000;2082.00000000000
Gyro Z : 1971.00000000000;1974.00000000000;1957.00000000000;1986.00000000000;1984.00000000000;1965.00000000000;1969.00000000000;1928.00000000000;1965.00000000000;1962.00000000000;1965.00000000000;1963.00000000000;1970.00000000000;1969.00000000000;1953.00000000000;1983.00000000000;1946.00000000000;1983.00000000000;1959.00000000000;1964.00000000000;1947.00000000000;1952.00000000000;1948.00000000000;1967.00000000000;1975.00000000000;1968.00000000000;1958.00000000000;1949.00000000000;1971.00000000000;1944.00000000000;1959.00000000000;1939.00000000000;1947.00000000000;1960.00000000000;1942.00000000000;1936.00000000000;1948.00000000000;1935.00000000000;1927.00000000000;1898.00000000000;1916.00000000000;1910.00000000000;1898.00000000000;1854.00000000000;1806.00000000000;1692.00000000000;1674.00000000000;1536.00000000000;1351.00000000000;1238.00000000000;1099.00000000000;996.000000000000;851.000000000000;664.000000000000;511.000000000000;327.000000000000;211.000000000000;26.0000000000000;22.0000000000000;24.0000000000000;23.0000000000000;28.0000000000000;174.000000000000;390.000000000000;504.000000000000;641.000000000000;767.000000000000;919.000000000000;1116.00000000000;1298.00000000000;1391.00000000000;1588.00000000000;1796.00000000000;1904.00000000000;2063.00000000000;2210.00000000000;2357.00000000000;2480.00000000000;2597.00000000000;2611.00000000000;2590.00000000000;2601.00000000000;2571.00000000000;2534.00000000000;2393.00000000000;2309.00000000000;2247.00000000000;2101.00000000000;2051.00000000000;1890.00000000000;1929.00000000000;1807.00000000000;1686.00000000000;1629.00000000000;1749.00000000000;1662.00000000000;1598.00000000000;1601.00000000000;1770.00000000000;1749.00000000000;1664.00000000000;1614.00000000000;1821.00000000000;1901.00000000000;1823.00000000000;1901.00000000000;1932.00000000000;2141.00000000000;2244.00000000000;2261.00000000000;2180.00000000000;2194.00000000000;2183.00000000000;2173.00000000000;2079.00000000000;2035.00000000000;1953.00000000000;1929.00000000000;1892.00000000000;1866.00000000000;1820.00000000000;1821.00000000000;1824.00000000000;1807.00000000000;1815.00000000000;1825.00000000000;1803.00000000000;1825.00000000000;1826.00000000000;1846.00000000000;1809.00000000000;1833.00000000000;1851.00000000000;1850.00000000000;1876.00000000000;1854.00000000000;1856.00000000000;1867.00000000000;1863.00000000000;1861.00000000000;1841.00000000000;1858.00000000000;1874.00000000000;1881.00000000000;1889.00000000000;1864.00000000000;1856.00000000000;1847.00000000000;1864.00000000000;1843.00000000000
