COMMAND 6 SAMPLE 1
Accel X : 2863.00000000000;2887.00000000000;2903.00000000000;2874.00000000000;2873.00000000000;2891.00000000000;2890.00000000000;2894.00000000000;2896.00000000000;2893.00000000000;2867.00000000000;2875.00000000000;2870.00000000000;2869.00000000000;2887.00000000000;2891.00000000000;2908.00000000000;2874.00000000000;2888.00000000000;2872.00000000000;2847.00000000000;2876.00000000000;2877.00000000000;2879.00000000000;2854.00000000000;2884.00000000000;2913.00000000000;2906.00000000000;2908.00000000000;2839.00000000000;2889.00000000000;2914.00000000000;2915.00000000000;2897.00000000000;2886.00000000000;2786.00000000000;2900.00000000000;2931.00000000000;2924.00000000000;2913.00000000000;2841.00000000000;2783.00000000000;2797.00000000000;2718.00000000000;2559.00000000000;2488.00000000000;2243.00000000000;2210.00000000000;2338.00000000000;2068.00000000000;1998.00000000000;1964.00000000000;1963.00000000000;2045.00000000000;2072.00000000000;2006.00000000000;1914.00000000000;1840.00000000000;1779.00000000000;2012.00000000000;1965.00000000000;1952.00000000000;1958.00000000000;1981.00000000000;1986.00000000000;1998.00000000000;2012.00000000000;1996.00000000000;1975.00000000000;1967.00000000000;2005.00000000000;1980.00000000000;1986.00000000000;1986.00000000000;1960.00000000000;1976.00000000000;1951.00000000000;1984.00000000000;1956.00000000000;1979.00000000000;1978.00000000000;1991.00000000000;1991.00000000000;2015.00000000000;1988.00000000000;1987.00000000000;1997.00000000000;1987.00000000000;1965.00000000000;1996.00000000000;1966.00000000000;2022.00000000000;1954.00000000000;1856.00000000000;1979.00000000000;2263.00000000000;2499.00000000000;2579.00000000000;2456.00000000000;2443.00000000000;2548.00000000000;2697.00000000000;2656.00000000000;2608.00000000000;2750.00000000000;3031.00000000000;3084.00000000000;3082.00000000000;2918.00000000000;2843.00000000000;2822.00000000000;2826.00000000000;2887.00000000000;2899.00000000000;2865.00000000000;2813.00000000000;2852.00000000000;2880.00000000000;2895.00000000000;2845.00000000000;2863.00000000000;2849.00000000000;2874.00000000000;2898.00000000000;2904.00000000000;2894.00000000000;2829.00000000000;2872.00000000000;2884.00000000000;2933.00000000000;2897.00000000000;2847.00000000000;2860.00000000000;2916.00000000000;2910.00000000000;2883.00000000000;2878.00000000000;2897.00000000000;2915.00000000000;2905.00000000000;2890.00000000000;2870.00000000000;2856.00000000000;2910.00000000000;2912.00000000000;2935.00000000000;2867.00000000000;2871.00000000000;2864.00000000000;2892.00000000000
Accel Y : 2098.00000000000;2103.00000000000;2113.00000000000;2109.00000000000;2107.00000000000;2110.00000000000;2103.00000000000;2118.00000000000;2098.00000000000;2107.00000000000;2119.00000000000;2106.00000000000;2104.00000000000;2106.00000000000;2112.00000000000;2106.00000000000;2108.00000000000;2139.00000000000;2097.00000000000;2125.00000000000;2105.00000000000;2112.00000000000;2121.00000000000;2110.00000000000;2119.00000000000;2103.00000000000;2109.00000000000;2110.00000000000;2127.00000000000;2121.00000000000;2119.00000000000;2109.00000000000;2093.00000000000;2117.00000000000;2121.00000000000;2123.00000000000;2132.00000000000;2132.00000000000;2153.00000000000;2127.00000000000;2136.00000000000;2137.00000000000;2143.00000000000;2156.00000000000;2113.00000000000;2105.00000000000;2121.00000000000;2159.00000000000;2206.00000000000;2183.00000000000;2250.00000000000;2290.00000000000;2299.00000000000;2304.00000000000;2337.00000000000;2362.00000000000;2371.00000000000;2368.00000000000;2328.00000000000;2385.00000000000;2369.00000000000;2351.00000000000;2353.00000000000;2343.00000000000;2342.00000000000;2336.00000000000;2337.00000000000;2359.00000000000;2341.00000000000;2327.00000000000;2340.00000000000;2323.00000000000;2333.00000000000;2317.00000000000;2339.00000000000;2327.00000000000;2324.00000000000;2339.00000000000;2332.00000000000;2328.00000000000;2323.00000000000;2315.00000000000;2315.00000000000;2310.00000000000;2306.00000000000;2298.00000000000;2324.00000000000;2316.00000000000;2334.00000000000;2349.00000000000;2340.00000000000;2346.00000000000;2341.00000000000;2311.00000000000;2345.00000000000;2328.00000000000;2312.00000000000;2316.00000000000;2293.00000000000;2249.00000000000;2239.00000000000;2217.00000000000;2197.00000000000;2163.00000000000;2141.00000000000;2109.00000000000;2063.00000000000;2072.00000000000;2046.00000000000;2054.00000000000;2043.00000000000;2051.00000000000;2047.00000000000;2034.00000000000;2033.00000000000;2029.00000000000;2026.00000000000;2012.00000000000;2054.00000000000;2026.00000000000;2020.00000000000;2031.00000000000;2027.00000000000;2025.00000000000;2036.00000000000;2044.00000000000;2050.00000000000;2034.00000000000;2019.00000000000;2023.00000000000;2041.00000000000;2033.00000000000;2037.00000000000;2017.00000000000;2073.00000000000;2048.00000000000;2020.00000000000;2044.00000000000;2031.00000000000;2064.00000000000;2041.00000000000;2050.00000000000;2051.00000000000;2064.00000000000;2045.00000000000;2051.00000000000;2043.00000000000;2024.00000000000;2025.00000000000;2034.00000000000
Accel Z : 1792.00000000000;1803.00000000000;1777.00000000000;1789.00000000000;1804.00000000000;1780.00000000000;1769.00000000000;1747.00000000000;1753.00000000000;1778.00000000000;1768.00000000000;1791.00000000000;1778.00000000000;1770.00000000000;1762.00000000000;1777.00000000000;1769.00000000000;1776.00000000000;1752.00000000000;1759.00000000000;1764.00000000000;1779.00000000000;1754.00000000000;1758.00000000000;1777.00000000000;1789.00000000000;1777.00000000000;1779.00000000000;1791.00000000000;1794.00000000000;1815.00000000000;1817.00000000000;1849.00000000000;1815.00000000000;1902.00000000000;1918.00000000000;1959.00000000000;1967.00000000000;2005.00000000000;2070.00000000000;2164.00000000000;2176.00000000000;2196.00000000000;2212.00000000000;2278.00000000000;2338.00000000000;2368.00000000000;2452.00000000000;2490.00000000000;2482.00000000000;2558.00000000000;2612.00000000000;2602.00000000000;2615.00000000000;2654.00000000000;2730.00000000000;2720.00000000000;2653.00000000000;2596.00000000000;2669.00000000000;2679.00000000000;2667.00000000000;2634.00000000000;2649.00000000000;2623.00000000000;2624.00000000000;2621.00000000000;2633.00000000000;2638.00000000000;2632.00000000000;2626.00000000000;2614.00000000000;2637.00000000000;2626.00000000000;2627.00000000000;2631.00000000000;2626.00000000000;2631.00000000000;2647.00000000000;2623.00000000000;2634.00000000000;2613.00000000000;2596.00000000000;2620.00000000000;2618.00000000000;2649.00000000000;2644.00000000000;2631.00000000000;2638.00000000000;2636.00000000000;2639.00000000000;2655.00000000000;2627.00000000000;2628.00000000000;2653.00000000000;2567.00000000000;2522.00000000000;2466.00000000000;2477.00000000000;2413.00000000000;2307.00000000000;2164.00000000000;2150.00000000000;2060.00000000000;1899.00000000000;1843.00000000000;1845.00000000000;1854.00000000000;1781.00000000000;1737.00000000000;1694.00000000000;1699.00000000000;1718.00000000000;1695.00000000000;1714.00000000000;1738.00000000000;1716.00000000000;1709.00000000000;1729.00000000000;1700.00000000000;1742.00000000000;1733.00000000000;1731.00000000000;1730.00000000000;1736.00000000000;1743.00000000000;1716.00000000000;1710.00000000000;1737.00000000000;1732.00000000000;1742.00000000000;1744.00000000000;1736.00000000000;1723.00000000000;1714.00000000000;1725.00000000000;1741.00000000000;1760.00000000000;1733.00000000000;1741.00000000000;1751.00000000000;1754.00000000000;1728.00000000000;1726.00000000000;1741.00000000000;1741.00000000000;1751.00000000000;1746.00000000000;1743.00000000000;1761.00000000000
Gyro X : 2863.00000000000;2887.00000000000;2903.00000000000;2874.00000000000;2873.00000000000;2891.00000000000;2890.00000000000;2894.00000000000;2896.00000000000;2893.00000000000;2867.00000000000;2875.00000000000;2870.00000000000;2869.00000000000;2887.00000000000;2891.00000000000;2908.00000000000;2874.00000000000;2888.00000000000;2872.00000000000;2847.00000000000;2876.00000000000;2877.00000000000;2879.00000000000;2854.00000000000;2884.00000000000;2913.00000000000;2906.00000000000;2908.00000000000;2839.00000000000;2889.00000000000;2914.00000000000;2915.00000000000;2897.00000000000;2886.00000000000;2786.00000000000;2900.00000000000;2931.00000000000;2924.00000000000;2913.00000000000;2841.00000000000;2783.00000000000;2797.00000000000;2718.00000000000;2559.00000000000;2488.00000000000;2243.00000000000;2210.00000000000;2338.00000000000;2068.00000000000;1998.00000000000;1964.00000000000;1963.00000000000;2045.00000000000;2072.00000000000;2006.00000000000;1914.00000000000;1840.00000000000;1779.00000000000;2012.00000000000;1965.00000000000;1952.00000000000;1958.00000000000;1981.00000000000;1986.00000000000;1998.00000000000;2012.00000000000;1996.00000000000;1975.00000000000;1967.00000000000;2005.00000000000;1980.00000000000;1986.00000000000;1986.00000000000;1960.00000000000;1976.00000000000;1951.00000000000;1984.00000000000;1956.00000000000;1979.00000000000;1978.00000000000;1991.00000000000;1991.00000000000;2015.00000000000;1988.00000000000;1987.00000000000;1997.00000000000;1987.00000000000;1965.00000000000;1996.00000000000;1966.00000000000;2022.00000000000;1954.00000000000;1856.00000000000;1979.00000000000;2263.00000000000;2499.00000000000;2579.00000000000;2456.00000000000;2443.00000000000;2548.00000000000;2697.00000000000;2656.00000000000;2608.00000000000;2750.00000000000;3031.00000000000;3084.00000000000;3082.00000000000;2918.00000000000;2843.00000000000;2822.00000000000;2826.00000000000;2887.00000000000;2899.00000000000;2865.00000000000;2813.00000000000;2852.00000000000;2880.00000000000;2895.00000000000;2845.00000000000;2863.00000000000;2849.00000000000;2874.00000000000;2898.00000000000;2904.00000000000;2894.00000000000;2829.00000000000;2872.00000000000;2884.00000000000;2933.00000000000;2897.00000000000;2847.00000000000;2860.00000000000;2916.00000000000;2910.00000000000;2883.00000000000;2878.00000000000;2897.00000000000;2915.00000000000;2905.00000000000;2890.00000000000;2870.00000000000;2856.00000000000;2910.00000000000;2912.00000000000;2935.00000000000;2867.00000000000;2871.00000000000;2864.00000000000;2892.00000000000
Gyro Y : 2098.00000000000;2103.00000000000;2113.00000000000;2109.00000000000;2107.00000000000;2110.00000000000;2103.00000000000;2118.00000000000;2098.00000000000;2107.00000000000;2119.00000000000;2106.00000000000;2104.00000000000;2106.00000000000;2112.00000000000;2106.00000000000;2108.00000000000;2139.00000000000;2097.00000000000;2125.00000000000;2105.00000000000;2112.00000000000;2121.00000000000;2110.00000000000;2119.00000000000;2103.00000000000;2109.00000000000;2110.00000000000;2127.00000000000;2121.00000000000;2119.00000000000;2109.00000000000;2093.00000000000;2117.00000000000;2121.00000000000;2123.00000000000;2132.00000000000;2132.00000000000;2153.00000000000;2127.00000000000;2136.00000000000;2137.00000000000;2143.00000000000;2156.00000000000;2113.00000000000;2105.00000000000;2121.00000000000;2159.00000000000;2206.00000000000;2183.00000000000;2250.00000000000;2290.00000000000;2299.00000000000;2304.00000000000;2337.00000000000;2362.00000000000;2371.00000000000;2368.00000000000;2328.00000000000;2385.00000000000;2369.00000000000;2351.00000000000;2353.00000000000;2343.00000000000;2342.00000000000;2336.00000000000;2337.00000000000;2359.00000000000;2341.00000000000;2327.00000000000;2340.00000000000;2323.00000000000;2333.00000000000;2317.00000000000;2339.00000000000;2327.00000000000;2324.00000000000;2339.00000000000;2332.00000000000;2328.00000000000;2323.00000000000;2315.00000000000;2315.00000000000;2310.00000000000;2306.00000000000;2298.00000000000;2324.00000000000;2316.00000000000;2334.00000000000;2349.00000000000;2340.00000000000;2346.00000000000;2341.00000000000;2311.00000000000;2345.00000000000;2328.00000000000;2312.00000000000;2316.00000000000;2293.00000000000;2249.00000000000;2239.00000000000;2217.00000000000;2197.00000000000;2163.00000000000;2141.00000000000;2109.00000000000;2063.00000000000;2072.00000000000;2046.00000000000;2054.00000000000;2043.00000000000;2051.00000000000;2047.00000000000;2034.00000000000;2033.00000000000;2029.00000000000;2026.00000000000;2012.00000000000;2054.00000000000;2026.00000000000;2020.00000000000;2031.00000000000;2027.00000000000;2025.00000000000;2036.00000000000;2044.00000000000;2050.00000000000;2034.00000000000;2019.00000000000;2023.00000000000;2041.00000000000;2033.00000000000;2037.00000000000;2017.00000000000;2073.00000000000;2048.00000000000;2020.00000000000;2044.00000000000;2031.00000000000;2064.00000000000;2041.00000000000;2050.00000000000;2051.00000000000;2064.00000000000;2045.00000000000;2051.00000000000;2043.00000000000;2024.00000000000;2025.00000000000;2034.00000000000
Gyro Z : 1792.00000000000;1803.00000000000;1777.00000000000;1789.00000000000;1804.00000000000;1780.00000000000;1769.00000000000;1747.00000000000;1753.00000000000;1778.00000000000;1768.00000000000;1791.00000000000;1778.00000000000;1770.00000000000;1762.00000000000;1777.00000000000;1769.00000000000;1776.00000000000;1752.00000000000;1759.00000000000;1764.00000000000;1779.00000000000;1754.00000000000;1758.00000000000;1777.00000000000;1789.00000000000;1777.00000000000;1779.00000000000;1791.00000000000;1794.00000000000;1815.00000000000;1817.00000000000;1849.00000000000;1815.00000000000;1902.00000000000;1918.00000000000;1959.00000000000;1967.00000000000;2005.00000000000;2070.00000000000;2164.00000000000;2176.00000000000;2196.00000000000;2212.00000000000;2278.00000000000;2338.00000000000;2368.00000000000;2452.00000000000;2490.00000000000;2482.00000000000;2558.00000000000;2612.00000000000;2602.00000000000;2615.00000000000;2654.00000000000;2730.00000000000;2720.00000000000;2653.00000000000;2596.00000000000;2669.00000000000;2679.00000000000;2667.00000000000;2634.00000000000;2649.00000000000;2623.00000000000;2624.00000000000;2621.00000000000;2633.00000000000;2638.00000000000;2632.00000000000;2626.00000000000;2614.00000000000;2637.00000000000;2626.00000000000;2627.00000000000;2631.00000000000;2626.00000000000;2631.00000000000;2647.00000000000;2623.00000000000;2634.00000000000;2613.00000000000;2596.00000000000;2620.00000000000;2618.00000000000;2649.00000000000;2644.00000000000;2631.00000000000;2638.00000000000;2636.00000000000;2639.00000000000;2655.00000000000;2627.00000000000;2628.00000000000;2653.00000000000;2567.00000000000;2522.00000000000;2466.00000000000;2477.00000000000;2413.00000000000;2307.00000000000;2164.00000000000;2150.00000000000;2060.00000000000;1899.00000000000;1843.00000000000;1845.00000000000;1854.00000000000;1781.00000000000;1737.00000000000;1694.00000000000;1699.00000000000;1718.00000000000;1695.00000000000;1714.00000000000;1738.00000000000;1716.00000000000;1709.00000000000;1729.00000000000;1700.00000000000;1742.00000000000;1733.00000000000;1731.00000000000;1730.00000000000;1736.00000000000;1743.00000000000;1716.00000000000;1710.00000000000;1737.00000000000;1732.00000000000;1742.00000000000;1744.00000000000;1736.00000000000;1723.00000000000;1714.00000000000;1725.00000000000;1741.00000000000;1760.00000000000;1733.00000000000;1741.00000000000;1751.00000000000;1754.00000000000;1728.00000000000;1726.00000000000;1741.00000000000;1741.00000000000;1751.00000000000;1746.00000000000;1743.00000000000;1761.00000000000
