COMMAND 1 SAMPLE 1
Accel X : -0.54268770529442223;-0.81555876133054761;-0.94694112164423749;-0.5831130469294038;-0.82566509673929289;-0.9166221154180012;-0.69428273642560301;-0.75492074887807525;-0.83577143214803828;-0.81555876133054761;-0.89640944460051053;-0.83577143214803828;-0.52247503447693155;-0.56290037611191301;-0.88630310919176514;-1.0985361527754181;-0.78523975510431143;-0.77513341969556604;-0.84587776755678368;-0.96715379246172817;-0.87619677378301974;-0.95704745705298278;-0.80545242592180211;-0.95704745705298278;-0.99747279868796435;-1.0985361527754181;-1.4926832337164879;-1.2804501901328349;-1.0884298173666729;-0.43151801579822313;0.16475577331775415;0.36688248149266167;1.2158146558272733;2.3881495632417371;4.096120247319706;5.3695185088216242;6.5519597516448336;7.7344009944680421;8.6237585104376357;9.2907766474148303;9.4221590077285189;9.3413083244585575;10.200346834201914;9.3008829828235751;8.3812064606277463;8.7248218645250883;8.5328014917589279;7.6030186341543526;7.2290842240307729;5.5716452169965311;4.1870772659984148;2.9844233523577142;1.6503870784033248;0.15464943790900876;-0.68417640101685762;-1.0075791340967097;-1.9171493208837938;-2.8166131722621324;-3.7565023652754523;-5.1006449746385876;-6.4043622423667417;-6.990529696073974;-7.9405252244960387;-9.40594385876412;-11.902208704724227;-14.317622867414373;-18.026647962423926;-19.229301876064628;-19.249514546882118;-19.229301876064628;-19.209089205247135;-17.905371937518982;-14.29741019659688;-12.518695164657695;-12.609652183336404;-11.619231313279355;-9.3351995109029016;-7.5059528019199879;-6.0405341676519084;-3.6453326757792532;-2.3820407496860811;-1.9676809979275207;-0.76502708428682065;0.14454310250026339;1.5088983826808893;2.276979873745538;2.5498509297816634;4.0860139119109613;4.5407990053045024;4.9652650924718094;7.5221679508843886;11.756722487148702;12.888632052928186;14.748197768137334;12.494484971987116;7.7242946590592974;10.574281244325492;16.072127706682981;17.941799757300874;17.254568949506186;15.96095801718678;15.263620873983347;15.607236277880691;16.516806464667777;15.354577892662057;10.331729194515605;3.499846458203729;3.924312545371035;8.6035458396201445;8.6136521750288892;4.7126067072531743;2.6104889422341357;2.9237853399052423;2.7721903087740616;1.3370906807322178;-0.77513341969556604;-2.5033167745910254;-2.7964005014446416;-3.3017172718819103;-2.6448054703134609;-2.4224660913210623;-2.9075701909408407;-2.4224660913210623;-2.7964005014446416;-3.5341629862830541;-3.4735249738305818;-3.524056650874309;-3.2006539177944568;-2.4729977683647895;-2.5740611224522434;-2.7660814952184056;-3.0288462158457854;-2.7660814952184056;-2.2910837310073728;-2.1900203769199189;-2.2203393831461549;-2.4022534205035719;-2.5336357808172618;-2.3112964018248636;-2.1597013706936825;-2.2910837310073728;-2.088957022832465;-2.1293823644674466;-2.0384253457887382;-2.0485316811974839;-1.9272556562925391;-2.0788506874237198;-2.0182126749712475;-1.9373619917012845;-1.6948099418913953
Accel Y : 0.45785220191862941;0.36603382712953259;0.29461953562690174;0.44765016027539639;0.28441749398366878;0.28441749398366878;0.21300320248103796;0.31502361891336772;0.20280116083780497;0.27421545234043576;0.24360932741073688;0.16199299426487307;0.049770536189310328;0.25381136905396984;0.070174619475776273;0.090578702762242239;0.35583178548629962;0.26401341069720285;0.25381136905396984;0.070174619475776273;0.45785220191862941;0.14158891097840712;0.43744811863216343;0.21300320248103796;0.32522566055660068;0.34562974384306661;0.34562974384306661;0.24360932741073688;0.17219503590810603;0.26401341069720285;0.12118482769194117;0.27421545234043576;-0.31750296296707681;-0.43992746268587252;-0.5419478791182023;-0.72558462869639584;-0.99083771142045318;-1.3377071272903744;-1.5213438768685681;-1.9906377924572849;-2.4395276247595361;-2.6639725409106609;-2.8272052072023888;-2.8680133737753208;-3.1230644148561453;-3.7147828301636578;-4.0310461211038806;-4.0616522460335789;-3.8474093715256861;-4.5411482032655286;-5.0512502854271775;-4.6431686196978585;-4.9288257857083817;-5.2858972432215365;-5.4797360344429622;-5.2246849933621382;-4.8166033276328193;-4.8880176191354501;-5.1838768267892066;-4.9900380355677791;-4.6023604531249269;-4.4595318701196645;-3.694378746877192;-3.0312460400670487;-2.8680133737753208;-2.1538704587490125;-2.2150827086084104;-1.9192235009546541;-1.3581112105768405;-1.4907377519388691;-2.1844765836787117;-2.449729666402769;-2.9802358318508833;-3.3271052477208047;-3.4291256641531342;-3.5821562888016292;-3.6127624137313283;-3.7045807885204249;-3.9698338712444823;-3.7453889550933566;-4.0514502043903464;-4.3575114536873354;-3.2556909562181735;-2.7659929573429913;-2.6435684576241951;-2.1028602505328475;-1.3989193771497723;-0.68477646212346388;-0.4603315459723385;0.32522566055660068;2.5594727804246227;3.3450299869535614;2.8553319880783787;2.8043217798622142;0.53946853506449322;-0.99083771142045318;-0.1032600884591843;-0.1440682550321162;-0.84800912841519149;-0.1440682550321162;0.059972577832543304;-0.031845796956553478;0.12118482769194117;0.19259911919457198;0.80472161778855056;0.89653999257764738;0.68229711806975479;1.6004808659607228;1.3046216583069665;0.87613590929118146;0.78431753450208452;0.77411549285885162;0.610882826567124;0.57007465999419205;0.40684199370246449;0.44765016027539639;0.47825628520509533;0.54967057670772612;0.48845832684832829;0.38643791041599856;-0.072653963529485388;-0.021643755313320502;-0.22568458817798001;-0.20528050489151409;-0.072653963529485388;-0.011441713670087523;0.25381136905396984;0.18239707755133902;0.31502361891336772;0.23340728576750391;0.32522566055660068;0.34562974384306661;0.49866036849156131;0.6006807849238911;0.57007465999419205;0.34562974384306661;0.3048215772701347;0.55987261835095914;0.34562974384306661;0.50886241013479427;0.29461953562690174;0.5292664934212602;0.55987261835095914;0.5292664934212602;0.41704403534569745;0.49866036849156131;0.37623586877276555;0.44765016027539639;0.54967057670772612;0.47825628520509533
Accel Z : 9.5187490052211121;9.5689049472552856;9.5388113820347815;9.5989985124757915;9.5388113820347815;9.5287801936279468;9.5889673240689568;9.7394351501714791;9.5287801936279468;9.4384994979664327;9.3783123675254245;9.6792480197304691;9.3281564254912492;9.8497782226466626;9.5187490052211121;9.4986866284074427;9.5087178168142756;9.6391232661031303;9.4786242515937733;9.5889673240689568;9.7294039617646444;9.8397470342398297;9.8598094110534973;9.930027729901342;10.331275266174737;10.150713874851709;10.210901005292719;10.311212889361068;10.451649527056757;10.722491614041298;10.882990628550656;10.842865874923318;10.862928251736985;10.722491614041298;10.180807440072213;9.5187490052211121;8.7262851210811565;8.4253494688761101;7.9538836137548703;7.1313261643944097;6.5695796136116567;5.7369909758443605;5.2956186859436256;4.7138097583472023;3.5802854683748606;2.8379775262690794;2.4367299899956838;2.0254512653154539;1.6542972942625631;1.564016598601049;1.3633928304643514;0.73142796083375372;0.65117845357907467;0.49067943906971651;-0.081098300119871833;-0.20147256100189043;-0.20147256100189043;0.049307149168981643;-0.8334374306324881;-0.70303198134363465;-1.194560213278544;-1.0340611987691859;-0.55256415524111135;0.24993091730567932;1.0524259898524699;2.506948308843528;4.3025310336669724;5.3457746279778;4.7439033235677073;3.1188508016604559;2.7476968306075653;2.5169794972503627;2.5771666276913723;2.6674473233528864;1.7546091783309119;1.2931745116165072;0.18974378686467;-0.061035923306202076;-0.16134780737455093;0.21983735208517466;0.48064825066288164;-0.63281366249579041;-0.82340624222565317;-1.4954958654835904;-1.5556829959245997;-1.5356206191109298;-1.3249656625673973;-1.0039676335486811;-1.1243418944306995;-1.9168057785706556;0.7715527144610933;1.8448898739924258;0.65117845357907467;0.95211410578412115;-0.90365574948033223;-0.99393644514184631;1.2831433232096725;2.2762309754863255;2.4266988015888491;2.0756072073496283;2.0154200769086188;1.564016598601049;2.3263869175205003;3.1991003089151349;4.3225934104806418;5.5664607729281679;7.311887555717437;7.4623553818199602;6.7902657585620236;7.2717628020900982;7.8034157876523471;7.9940083673822091;8.1545073818915679;7.7131350919908321;7.6027920195156486;7.7833534108386768;8.1143826282642291;8.3551311500282655;8.7363163094879912;8.4153182804692754;8.8165658167426706;9.057314338506707;9.217813353016064;8.9670336428451929;8.8667217587768441;8.7463474978948259;9.3080940486775798;9.368281179118588;9.548842570441618;9.3080940486775798;9.1676574109818905;9.1977509762023963;9.2479069182365699;9.1977509762023963;9.6290920776962956;9.1275326573545517;9.1275326573545517;9.3181252370844145;9.217813353016064;9.0673455269135417;9.3080940486775798;9.2980628602707451;9.3080940486775798;9.3482188023049186;9.1475950341682211;9.3181252370844145;9.207782164609231;9.5187490052211121;9.4184371211527633;9.4084059327459286
Gyro X : 0.17261498096647215;0;-0.083110916761634748;0.14704239119366147;-0.0063931474432026725;-0.063931474432026722;0.076717769318432064;0.038358884659216032;-0.012786294886405345;0;-0.05114517954562138;-0.012786294886405345;0.1854012758528775;0.15982868608006681;-0.04475203210241871;-0.17900812840967484;0.019179442329608016;0.02557258977281069;-0.019179442329608016;-0.09589721164804009;-0.038358884659216032;-0.089504064204837419;0.0063931474432026725;-0.089504064204837419;-0.1150766539776481;-0.17900812840967484;-0.42834087869457904;-0.29408478238732294;-0.17261498096647215;0.24293960284170155;0.62013530199065925;0.74799825085471272;1.2850226360837371;2.0266277394952472;3.1070696573964987;3.9126062352400357;4.6606044860947486;5.4086027369494607;5.9711997119512956;6.3931474432026727;6.4762583599643069;6.4251131804186858;6.9685307130909129;6.3995405906458753;5.8177641733144316;6.0351311863833228;5.913661384962472;5.3254918201878265;5.0889453647893275;4.0404691841040892;3.1646079843853228;2.403823438644205;1.5599279761414522;0.61374215454745651;0.083110916761634748;-0.12146980142085077;-0.69685307130909124;-1.2658431937541292;-1.8604059059719777;-2.710694515917933;-3.5354105360910779;-3.9062130877968331;-4.5071689474578838;-5.4341753267222712;-7.0132827451933313;-8.5412449841187712;-10.887530095774151;-11.648314641515269;-11.661100936401674;-11.648314641515269;-11.635528346628863;-10.81081232645572;-8.5284586892323642;-7.4032647392286943;-7.4608030662175189;-6.8342746167836568;-5.3894232946198528;-4.2322636074001689;-3.3052572281357815;-1.7900812840967484;-0.99093785369641418;-0.72881880852510461;0.031965737216013361;0.60734900710425388;1.4704239119366147;1.9563031176200179;2.1289180985864897;3.100676509953296;3.3883681448974166;3.6568803375119288;5.2743466406422046;7.9530754193441249;8.6691079329828238;9.8454470625321147;8.4197751826979204;5.4022095895062581;7.2050771684894119;10.682949377591665;11.86568165458416;11.430947628446379;10.612624755716435;10.171497582135451;10.388864595204343;10.964247865092583;10.229035909124276;7.0516416298525479;2.7298739582475413;2.9983861508620535;5.9584134170648904;5.964806564508093;3.4970516514318617;2.1672769832457059;2.3654645539849888;2.2695673423369489;1.3617404054021691;0.02557258977281069;-1.0676556230148464;-1.2530568988677238;-1.5727142710278574;-1.1571596872196837;-1.0165104434692249;-1.3233815207429531;-1.0165104434692249;-1.2530568988677238;-1.7197566622215188;-1.6813977775623028;-1.7133635147783162;-1.5087827965958307;-1.0484761806852383;-1.112407655117265;-1.2338774565381159;-1.4000992900613853;-1.2338774565381159;-0.93339952670759019;-0.86946805227556345;-0.88864749460517145;-1.0037241485828197;-1.0868350653444543;-0.94618582159399556;-0.85028860994595545;-0.93339952670759019;-0.80553657784353672;-0.83110916761634746;-0.77357084062752335;-0.77996398807072609;-0.70324621875229398;-0.79914343040033409;-0.76078454574111798;-0.70963936619549661;-0.55620382755863251
Gyro Y : 1.48321020682302;1.4256718798341959;1.3809198477317772;1.4768170593798173;1.3745267002885746;1.3745267002885746;1.329774668186156;1.3937061426181825;1.3233815207429531;1.368133552845372;1.3489541105157639;1.2978089309701426;1.227484309094913;1.3553472579589665;1.2402706039813185;1.2530568988677238;1.4192787323909932;1.3617404054021691;1.3553472579589665;1.2402706039813185;1.48321020682302;1.2850226360837371;1.4704239119366147;1.329774668186156;1.4000992900613853;1.4128855849477906;1.4128855849477906;1.3489541105157639;1.3042020784133452;1.3617404054021691;1.2722363411973319;1.368133552845372;0.99733100113961692;0.92061323182118482;0.85668175738915808;0.74160510341150998;0.57538326988824051;0.35801625681934968;0.24293960284170155;-0.05114517954562138;-0.33244366704653899;-0.47309291079699778;-0.57538326988824051;-0.60095585966105125;-0.76078454574111798;-1.1315870974468729;-1.329774668186156;-1.3489541105157639;-1.2146980142085078;-1.6494320403462894;-1.9690894125064231;-1.7133635147783162;-1.8923716431879911;-2.1161318037000845;-2.2376016051209353;-2.0777729190408687;-1.8220470213127617;-1.8667990534151804;-2.0522003292680577;-1.9307305278472071;-1.6877909250055054;-1.5982868608006682;-1.1188008025604677;-0.70324621875229398;-0.60095585966105125;-0.15343553863686413;-0.19179442329608018;-0.0063931474432026725;0.34522996193294431;0.26211904517130957;-0.17261498096647215;-0.33883681448974162;-0.67128048153628062;-0.88864749460517145;-0.95257896903719819;-1.0484761806852383;-1.0676556230148464;-1.1251939500036703;-1.2914157835269398;-1.150766539776481;-1.3425609630725612;-1.5343553863686414;-0.84389546250275271;-0.53702438522902451;-0.46030661591059241;-0.12146980142085077;0.31965737216013362;0.76717769318432072;0.90782693693477945;1.4000992900613853;2.8001985801227707;3.2924709332493762;2.9855998559756478;2.9536341187596347;1.5343553863686414;0.57538326988824051;1.1315870974468729;1.1060145076740624;0.66488733409307799;1.1060145076740624;1.2338774565381159;1.1763391295492918;1.2722363411973319;1.3169883732997505;1.7005772198919109;1.758115546880735;1.6238594505734787;2.1992427204617195;2.013841444608842;1.7453292519943295;1.6877909250055054;1.6813977775623028;1.5791074184710601;1.5535348286982493;1.4512444696070066;1.4768170593798173;1.4959965017094254;1.5407485338118441;1.5023896491526281;1.4384581747206013;1.150766539776481;1.1827322769924944;1.0548693281284409;1.0676556230148464;1.150766539776481;1.189125424435697;1.3553472579589665;1.3105952258565479;1.3937061426181825;1.3425609630725612;1.4000992900613853;1.4128855849477906;1.5087827965958307;1.5727142710278574;1.5535348286982493;1.4128855849477906;1.3873129951749799;1.5471416812550467;1.4128855849477906;1.5151759440390333;1.3809198477317772;1.5279622389254388;1.5471416812550467;1.5279622389254388;1.4576376170502092;1.5087827965958307;1.4320650272773987;1.4768170593798173;1.5407485338118441;1.4959965017094254
Gyro Z : 5.2807397880854072;5.3127055253014204;5.2935260829718125;5.3318849676310291;5.2935260829718125;5.2871329355286099;5.3254918201878265;5.421389031835866;5.2871329355286099;5.2295946085397862;5.1912357238805704;5.3830301471766502;5.1592699866645564;5.4917136537110958;5.2807397880854072;5.267953493199002;5.2743466406422046;5.3574575574038397;5.2551671983125967;5.3254918201878265;5.4149958843926633;5.4853205062678931;5.4981068011542984;5.5428588332567168;5.7985847309848237;5.6835080770071755;5.7218669616663922;5.7857984360984185;5.8753025003032562;6.0479174812697281;6.150207840360971;6.1246352505881605;6.1374215454745658;6.0479174812697281;5.7026875193367834;5.2807397880854072;4.775681140072396;4.5838867167763162;4.2834087869457909;3.7591706966031713;3.4011544397838218;2.870523201998;2.5892247144970821;2.2184221627913274;1.4959965017094254;1.0229035909124276;0.76717769318432072;0.50505864801301115;0.26851219261451226;0.21097386562568818;0.083110916761634748;-0.31965737216013362;-0.37080255170575499;-0.47309291079699778;-0.83750231505955008;-0.91422008437798219;-0.91422008437798219;-0.75439139829791535;-1.3169883732997505;-1.2338774565381159;-1.5471416812550467;-1.444851322163804;-1.1379802448900758;-0.62652844943386188;-0.1150766539776481;0.81192972528673935;1.9563031176200179;2.6211904517130957;2.2376016051209353;1.2019117193221025;0.96536526392360356;0.81832287272994209;0.85668175738915808;0.91422008437798219;0.33244366704653899;0.038358884659216032;-0.66488733409307799;-0.82471602017314471;-0.88864749460517145;-0.64570789176346988;-0.47948605824020041;-1.189125424435697;-1.3105952258565479;-1.7389361045511269;-1.7772949892103429;-1.7645086943239376;-1.6302525980166815;-1.4256718798341959;-1.5023896491526281;-2.0074482971656393;-0.29408478238732294;0.38998199403536304;-0.37080255170575499;-0.17900812840967484;-1.3617404054021691;-1.4192787323909932;0.031965737216013361;0.66488733409307799;0.76078454574111798;0.53702438522902451;0.49866550056980846;0.21097386562568818;0.69685307130909124;1.2530568988677238;1.9690894125064231;2.7618396954635545;3.8742473505808195;3.9701445622288594;3.5418036835342805;3.848674760808009;4.1875115752977505;4.3089813767186014;4.4112717358098443;4.129973248308926;4.0596486264336971;4.1747252804113453;4.3856991460370329;4.5391346846738978;4.7820742875155986;4.5774935693331136;4.8332194670612205;4.9866550056980845;5.0889453647893275;4.9291166787092608;4.8651852042772337;4.7884674349588012;5.1464836917781511;5.1848425764373669;5.2999192304150151;5.1464836917781511;5.0569796275733143;5.0761590699029222;5.1081248071189354;5.0761590699029222;5.351064409960637;5.0314070378005029;5.0314070378005029;5.1528768392213538;5.0889453647893275;4.9930481531412871;5.1464836917781511;5.1400905443349485;5.1464836917781511;5.1720562815509616;5.0441933326869082;5.1528768392213538;5.0825522173461248;5.2807397880854072;5.2168083136533809;5.2104151662101783
COMMAND 1 SAMPLE 2
Accel X : -0.55279404070316773;-0.50226236365944077;-0.69428273642560301;-0.37088000334575089;-0.81555876133054761;-0.70438907183434829;-0.64375105938187605;-0.72460174265183908;-0.62353838856438526;-0.79534609051305682;-0.70438907183434829;-0.54268770529442223;-0.47194335743320465;-0.53258136988567695;-0.53258136988567695;-0.57300671152065841;-0.39109267416324162;-0.62353838856438526;-0.68417640101685762;-0.87619677378301974;-0.84587776755678368;-0.5831130469294038;-0.70438907183434829;-0.74481441346932986;-0.66396373019936683;-0.77513341969556604;-0.89640944460051053;-0.75492074887807525;-0.5831130469294038;-0.60332571774689459;-0.94694112164423749;-0.87619677378301974;-0.76502708428682065;-0.80545242592180211;-0.65385739479062155;-0.57300671152065841;-0.70438907183434829;-0.85598410296552896;-0.82566509673929289;-0.9166221154180012;-0.72460174265183908;-0.69428273642560301;-0.78523975510431143;-0.93683478623549199;-1.1894931714541264;-0.64375105938187605;0.12433043168277262;0.42752049394513397;0.58922186048505998;0.92273092897365749;1.417941364002181;2.1152785072056122;2.3578305570155011;2.6509142838691169;2.347724221606756;2.6205952776428809;2.6812332900953533;2.1152785072056122;2.3376178861980104;0.98336894142612974;0.063692419230300348;0.20518111495273564;0.053586083821554976;0.12433043168277262;0.4578395001713701;0.18496844413524491;0.073798754639045741;-0.4113053449807324;-0.95704745705298278;-1.9575746625187753;-3.4128869613781094;-5.1208576454560788;-7.4655274602850064;-10.851149822214708;-13.963901128108283;-15.32825640828891;-13.367627338992307;-10.790511809762235;-12.124548083716626;-8.7591383926044148;-6.7884029878990653;-6.2729798820530522;-6.6772332984028662;-5.4139413723096945;-4.1102241045815413;-3.3118236072906559;-2.7964005014446416;-1.603852923212687;-0.88630310919176514;-0.21928497221457022;0.83177391029494907;1.2259209912360189;0.26581912740520791;1.2360273266447641;0.97326260601738435;0.88230558733867603;2.0243214885269039;3.6312288185174189;4.6216496885744665;2.1860228550668297;-0.098008947309625685;-2.5639547870434978;-0.74481441346932986;-1.1187488235929091;-0.59321938233814919;2.1354911780231025;1.6099617367683432;1.0035816122436205;0.74081689161624065;0.134436767091518;0.51847751262384234;0.94294359979114828;1.579642730542107;0.70039154998125919;0.94294359979114828;0.67007254375502312;1.124857637148565;1.1854956496010374;1.1147513017398196;0.94294359979114828;0.97326260601738435;0.92273092897365749;0.65996620834627762;0.48815850639760622;0.42752049394513397;0.74081689161624065;0.85198658111243974;0.86209291652118525;1.0035816122436205;0.77113589784247671;0.86209291652118525;0.85198658111243974;0.50837117721509695;0.67007254375502312;0.73071055620749537;0.57911552507631459;0.53869018344133313;0.46794583558011549;0.5589028542588238;0.80145490406871289;1.0541132892873475;0.59932819589380537;0.48815850639760622;0.64985987293753233;0.61954086671129616;0.48815850639760622;0.51847751262384234;0.48815850639760622;0.6801788791637684;0.73071055620749537
Accel Y : 0.98835836736674409;1.1413889920152389;1.2026012418746366;1.039368575582909;1.1413889920152389;1.1719951169449376;1.1821971585881708;1.1107828670855397;1.059772658869375;1.0903787837990737;1.1515910336584718;1.1515910336584718;1.2128032835178695;1.0699747005126079;1.2638134917340347;1.1311869503720058;1.00876245065321;1.1209849087287727;1.0699747005126079;1.2026012418746366;1.1107828670855397;0.84552978436148241;1.0291665339396761;0.85573182600471542;0.95775224243704526;0.96795428408027817;1.039368575582909;1.0903787837990737;1.1719951169449376;1.1515910336584718;1.039368575582909;1.3046216583069665;1.039368575582909;1.039368575582909;1.2944196166637334;0.90674203422088029;0.95775224243704526;1.2536114500908013;1.059772658869375;0.90674203422088029;0.96795428408027817;1.1515910336584718;1.2740155333772676;1.6106829076039557;1.1719951169449376;1.5086624911716258;1.559672699387791;1.5494706577445576;1.6514910741768876;1.4474502413122281;0.80472161778855056;0.89653999257764738;0.89653999257764738;0.92714611750734621;1.3352277832366652;0.85573182600471542;0.75371140957238569;1.4372481996689952;0.85573182600471542;0.0089623696163784287;-0.95002954484752133;-0.90922137827458938;-1.4397275437227042;-1.7457887930196934;-2.000839834100518;-2.8884174570617867;-3.1128623732129124;-3.2250848312884748;-4.1840767457523746;-4.6329665780546261;-4.9798359939245467;-5.6123625758049913;-6.4489299905500959;-6.7345871565606181;-7.5711545713057227;-7.6935790710245184;-5.8980197418155145;-6.5713544902688907;-7.5609525296624902;-7.4181239466572277;-7.2344871970790345;-7.1528708639331704;-7.2854974052951995;-7.3977198633707619;-7.244689238722267;-7.5609525296624902;-7.5099423214463252;-6.7549912398470839;-5.836807491956117;-5.3777156180106331;-4.4289257451899662;-3.6433685386610271;-2.5109419162621669;-1.5417479601550339;-0.98063566977722016;0.16199299426487307;0.81492365943178358;2.0595727399062063;3.3450299869535614;4.1611933184121996;4.4468504844227228;4.2632137348445296;5.0997811495896332;3.8653341107584431;2.1309870314088375;2.0085625316900417;1.2944196166637334;0.95775224243704526;0.91694407586411331;0.86593386764794833;0.89653999257764738;0.80472161778855056;0.49866036849156131;0.57007465999419205;0.46805424356186237;-0.072653963529485388;-0.09305804681595134;-0.55214992076143521;-0.021643755313320502;-0.23588662982121297;-0.61336217062083309;-0.4603315459723385;-0.4603315459723385;-0.1032600884591843;-0.38891725446970765;-0.28689683803737787;-0.50113971254527034;-0.53174583747496929;-0.45012950432910553;-0.62356421226406611;-0.60316012897760019;-0.68477646212346388;-0.64396829555053192;-0.50113971254527034;-0.76639279526932769;-0.9296254615610553;-0.7765948369125607;-0.85821117005842462;-0.49093767090203738;-0.52154379583173627;-0.5419478791182023;-0.21548254653474705;-0.41952337939940659;-0.28689683803737787;-0.33790704625354279;-0.31750296296707681;-0.63376625390729902;-0.21548254653474705;-0.34810908789677575;-0.32770500461030977
Accel Z : 9.7594975269851485;9.6391232661031303;9.7996222806124891;9.6391232661031303;9.6892792081373038;9.649154454509965;9.6792480197304691;9.9400589183081767;9.6591856429168015;9.6892792081373038;9.5689049472552856;9.4485306863732674;9.5287801936279468;9.4986866284074427;9.488655440000608;9.5989985124757915;9.4485306863732674;9.5187490052211121;9.4786242515937733;9.4485306863732674;9.6090297008826262;9.4986866284074427;9.5989985124757915;9.6692168313236362;9.6391232661031303;9.6090297008826262;9.6290920776962956;9.428468309559598;9.5789361356621203;9.5187490052211121;9.7193727733578097;9.6993103965441403;9.5889673240689568;9.8899029762740032;9.7394351501714791;9.930027729901342;9.8798717878671685;10.01027723715602;10.421555961836251;10.752585179261802;11.133770338721529;11.32436291845139;12.096764425777678;12.568230280898916;12.668542164967265;13.440943672293551;13.982627846262634;13.882315962194287;14.082939730330983;13.591411498396074;13.160070396902174;12.979509005579146;12.307419382321211;11.936265411268318;11.304300541637723;9.9701524835286808;8.9870960196588641;7.5827296427019792;6.3789870338817929;4.4630300481763303;3.0987884248467861;1.4035175840916911;-0.14128543056088116;-1.1042795176170299;-2.4986147061670785;-3.9731994019718067;-5.1067236919441488;-7.0728366196837857;-8.4069846777928259;-9.3800099532558079;-10.854594649060537;-12.3392105332721;-14.285261084198066;-15.779908156816465;-16.772995809093118;-16.020656678580501;-11.907869431778201;-10.794407518619527;-12.309116968051594;-10.57372137366916;-10.06213076492058;-9.7010079822745254;-10.172473837395763;-9.8113510547497089;-8.3367663589449812;-7.8352069386032364;-7.6646767356870438;-6.6715890834103897;-5.3775657789286901;-3.8127003874624483;-3.1907667062386857;-2.4885835177602438;-1.3349968509742325;0.22986854049200955;1.0022700478182955;1.6743596710762327;2.7978527726417401;3.8912523089867421;6.5294548599843161;6.6097043672389955;7.9739459905685397;10.180807440072213;12.959446628765477;15.627742744983555;16.319894745055162;16.701079904514888;16.319894745055162;15.738085817458739;14.484187266604378;13.721816947684928;13.160070396902174;12.989540193985983;12.487980773644239;11.40461242570607;10.702429237227628;10.180807440072213;9.869840599460332;9.5388113820347815;9.1475950341682211;8.77644106311533;8.9168777008110194;8.9670336428451929;9.057314338506707;9.428468309559598;9.0874079037272129;9.0272207732862029;9.4384994979664327;9.0874079037272129;9.6892792081373038;9.6290920776962956;9.6190608892894591;9.5789361356621203;9.5287801936279468;9.1977509762023963;9.5989985124757915;9.3482188023049186;9.7394351501714791;9.4485306863732674;9.3783123675254245;9.428468309559598;9.5287801936279468;9.1676574109818905;9.428468309559598;9.2479069182365699;9.4685930631869368;9.278000483457074;9.4585618747801021;9.5388113820347815;9.3482188023049186;9.7394351501714791
Gyro X : 0.1662218335232695;0.19818757073928284;0.076717769318432064;0.28129848750091757;0;0.070324621875229393;0.10868350653444543;0.057538326988824051;0.12146980142085077;0.012786294886405345;0.070324621875229393;0.17261498096647215;0.21736701306889086;0.17900812840967484;0.17900812840967484;0.15343553863686413;0.26851219261451226;0.12146980142085077;0.083110916761634748;-0.038358884659216032;-0.019179442329608016;0.14704239119366147;0.070324621875229393;0.04475203210241871;0.09589721164804009;0.02557258977281069;-0.05114517954562138;0.038358884659216032;0.14704239119366147;0.13425609630725613;-0.083110916761634748;-0.038358884659216032;0.031965737216013361;0.0063931474432026725;0.10229035909124276;0.15343553863686413;0.070324621875229393;-0.02557258977281069;-0.0063931474432026725;-0.063931474432026722;0.057538326988824051;0.076717769318432064;0.019179442329608016;-0.076717769318432064;-0.23654645539849889;0.10868350653444543;0.59456271221784851;0.78635713551392872;0.88864749460517145;1.0996213602308598;1.4128855849477906;1.8540127585287749;2.0074482971656393;2.1928495730185165;2.0010551497224363;2.1736701306889086;2.2120290153481248;1.8540127585287749;1.9946620022792338;1.1379802448900758;0.55620382755863251;0.64570789176346988;0.54981068011542988;0.59456271221784851;0.80553657784353672;0.63292159687706462;0.56259697500183514;0.25572589772810689;-0.089504064204837419;-0.72242566108190198;-1.6430388929030868;-2.7234808108043382;-4.2066910176273584;-6.3483954111002534;-8.3174848236066765;-9.1805597284390377;-7.9402891244577187;-6.3100365264410376;-7.15393198894379;-5.0250138903573003;-3.7783501389327796;-3.4522996193294433;-3.7080255170575498;-2.9088820866572158;-2.0841660664840713;-1.5791074184710601;-1.2530568988677238;-0.49866550056980846;-0.04475203210241871;0.37719569914895767;1.0420830332420357;1.2914157835269398;0.68406677642268598;1.2978089309701426;1.1315870974468729;1.074048770458049;1.796474431539951;2.8129848750091759;3.4395133244430376;1.8987647906311937;0.45391346846738972;-1.1060145076740624;0.04475203210241871;-0.19179442329608018;0.14064924375045879;1.8667990534151804;1.5343553863686414;1.150766539776481;0.98454470625321155;0.60095585966105125;0.84389546250275271;1.112407655117265;1.5151759440390333;0.95897211648040082;1.112407655117265;0.93979267415079282;1.227484309094913;1.2658431937541292;1.2210911616517104;1.112407655117265;1.1315870974468729;1.0996213602308598;0.93339952670759019;0.82471602017314471;0.78635713551392872;0.98454470625321155;1.0548693281284409;1.0612624755716435;1.150766539776481;1.0037241485828197;1.0612624755716435;1.0548693281284409;0.83750231505955008;0.93979267415079282;0.97815155881000893;0.88225434716196882;0.85668175738915808;0.81192972528673935;0.86946805227556345;1.0229035909124276;1.1827322769924944;0.89504064204837419;0.82471602017314471;0.92700637926438745;0.90782693693477945;0.82471602017314471;0.84389546250275271;0.82471602017314471;0.94618582159399556;0.97815155881000893
Gyro Y : 1.8156538738695589;1.911551085517599;1.949909970176815;1.8476196110855723;1.911551085517599;1.9307305278472071;1.9371236752904097;1.8923716431879911;1.8604059059719777;1.8795853483015856;1.9179442329608016;1.9179442329608016;1.9563031176200179;1.8667990534151804;1.9882688548360312;1.9051579380743964;1.8284401687559644;1.8987647906311937;1.8667990534151804;1.949909970176815;1.8923716431879911;1.7261498096647216;1.8412264636423696;1.7325429571079243;1.796474431539951;1.8028675789831536;1.8476196110855723;1.8795853483015856;1.9307305278472071;1.9179442329608016;1.8476196110855723;2.013841444608842;1.8476196110855723;1.8476196110855723;2.0074482971656393;1.7645086943239376;1.796474431539951;1.9818757073928284;1.8604059059719777;1.7645086943239376;1.8028675789831536;1.9179442329608016;1.9946620022792338;2.2056358679049222;1.9307305278472071;2.1417043934728954;2.1736701306889086;2.1672769832457059;2.2312084576777327;2.1033455088136792;1.7005772198919109;1.758115546880735;1.758115546880735;1.7772949892103429;2.0330208869384498;1.7325429571079243;1.6686114826758975;2.0969523613704766;1.7325429571079243;1.2019117193221025;0.60095585966105125;0.62652844943386188;0.29408478238732294;0.10229035909124276;-0.057538326988824051;-0.61374215454745651;-0.75439139829791535;-0.82471602017314471;-1.4256718798341959;-1.7069703673351135;-1.9243373804040045;-2.3207125218825699;-2.8449506122251891;-3.023958740634864;-3.5481968309774832;-3.6249146002959152;-2.4997206502922449;-2.9216683815436215;-3.5418036835342805;-3.4522996193294433;-3.3372229653517951;-3.2860777858061736;-3.3691887025678082;-3.4395133244430376;-3.3436161127949977;-3.5418036835342805;-3.509837946318267;-3.0367450355212693;-2.4613617656330287;-2.1736701306889086;-1.5791074184710601;-1.0868350653444543;-0.37719569914895767;0.2301533079552962;0.58177641733144314;1.2978089309701426;1.7069703673351135;2.4869343554058396;3.2924709332493762;3.8039227287055901;3.9829308571152651;3.8678542031376169;4.3920922934802356;3.6185214528527125;2.5316863875082585;2.454968618189826;2.0074482971656393;1.796474431539951;1.7709018417671403;1.7389361045511269;1.758115546880735;1.7005772198919109;1.5087827965958307;1.5535348286982493;1.4896033542662226;1.150766539776481;1.1379802448900758;0.85028860994595545;1.1827322769924944;1.0484761806852383;0.81192972528673935;0.90782693693477945;0.90782693693477945;1.1315870974468729;0.95257896903719819;1.0165104434692249;0.88225434716196882;0.86307490483236082;0.91422008437798219;0.80553657784353672;0.81832287272994209;0.76717769318432072;0.79275028295713135;0.88225434716196882;0.71603251363869935;0.61374215454745651;0.70963936619549661;0.65849418664987525;0.88864749460517145;0.86946805227556345;0.85668175738915808;1.0612624755716435;0.93339952670759019;1.0165104434692249;0.98454470625321155;0.99733100113961692;0.79914343040033409;1.0612624755716435;0.97815155881000893;0.99093785369641418
Gyro Z : 5.4341753267222712;5.3574575574038397;5.4597479164950826;5.3574575574038397;5.3894232946198528;5.3638507048470423;5.3830301471766502;5.5492519806999194;5.3702438522902449;5.3894232946198528;5.3127055253014204;5.2359877559829888;5.2871329355286099;5.267953493199002;5.2615603457557993;5.3318849676310291;5.2359877559829888;5.2807397880854072;5.2551671983125967;5.2359877559829888;5.3382781150742318;5.267953493199002;5.3318849676310291;5.3766369997334476;5.3574575574038397;5.3382781150742318;5.351064409960637;5.2232014610965836;5.3190986727446239;5.2807397880854072;5.4086027369494607;5.3958164420630554;5.3254918201878265;5.5172862434839063;5.421389031835866;5.5428588332567168;5.5108930960407037;5.5940040128023387;5.8561230579736483;6.0670969235993359;6.3100365264410376;6.4315063278618885;6.9237786809884945;7.2242566108190198;7.288188085251047;7.7804604383776521;8.1256904003105959;8.0617589258785696;8.1896218747426239;7.8763576500256924;7.6014523099679776;7.4863756559903294;7.0580347772957506;6.8214883218972515;6.4187200329754832;5.5684314230295273;4.9419029735956661;4.0468623315472918;3.279684638362971;2.0585934767112604;1.189125424435697;0.10868350653444543;-0.87586119971876608;-1.4896033542662226;-2.378250848871394;-3.3180435230221872;-4.0404691841040892;-5.2935260829718125;-6.1438146929177684;-6.7639499949084279;-7.7037426690592206;-8.649928490653215;-9.8901990946345339;-10.842778063671732;-11.475699660548797;-10.996213602308597;-8.3750231505955011;-7.6653837844000039;-8.630749048323608;-7.5247345406495452;-7.1986840210462093;-6.9685307130909129;-7.2690086429214382;-7.0388553349661427;-6.0990626608153491;-5.7794052886552159;-5.6707217821207703;-5.0378001852437055;-4.213084165070561;-3.2157531639309442;-2.8193780224523786;-2.3718577014281914;-1.6366457454598842;-0.63931474432026725;-0.14704239119366147;0.28129848750091757;0.99733100113961692;1.6941840724487083;3.3755818500110109;3.4267270295566323;4.2961950818321961;5.7026875193367834;7.4735893611039241;9.1741665809958342;9.61529375457682;9.8582333574185217;9.61529375457682;9.244491202871064;8.4453477724707309;7.9594685667873275;7.6014523099679776;7.492768803433532;7.1731114312733988;6.4826515074075095;6.0351311863833228;5.7026875193367834;5.504499948597501;5.2935260829718125;5.0441933326869082;4.80764687728841;4.8971509414932468;4.9291166787092608;4.9866550056980845;5.2232014610965836;5.0058344480276924;4.9674755633684766;5.2295946085397862;5.0058344480276924;5.3894232946198528;5.351064409960637;5.3446712625174344;5.3190986727446239;5.2871329355286099;5.0761590699029222;5.3318849676310291;5.1720562815509616;5.421389031835866;5.2359877559829888;5.1912357238805704;5.2232014610965836;5.2871329355286099;5.0569796275733143;5.2232014610965836;5.1081248071189354;5.2487740508693941;5.1273042494485432;5.2423809034261915;5.2935260829718125;5.1720562815509616;5.421389031835866
COMMAND 1 SAMPLE 3
Accel X : -0.49215602825069543;-0.62353838856438526;-0.74481441346932986;-0.67407006560811222;-0.61343205315563998;-0.49215602825069543;-0.5831130469294038;-0.71449540724309379;-0.45173068661571392;-0.57300671152065841;-0.51236869906818616;-0.29002932007578791;-0.5831130469294038;-0.60332571774689459;-0.76502708428682065;-0.60332571774689459;-0.57300671152065841;-0.49215602825069543;-0.56290037611191301;-0.50226236365944077;-0.59321938233814919;-0.18896596598833409;-0.57300671152065841;-0.4113053449807324;-0.76502708428682065;-0.68417640101685762;-0.83577143214803828;-0.52247503447693155;-0.49215602825069543;-0.75492074887807525;-0.68417640101685762;-0.62353838856438526;-0.72460174265183908;-0.70438907183434829;-0.65385739479062155;-0.90651578000925592;-0.99747279868796435;-1.1692805006366358;-0.84587776755678368;-0.84587776755678368;-0.80545242592180211;-1.149067829819145;-1.3006628609503257;-1.2299185130891079;-0.66396373019936683;0.32645713985768016;0.58922186048505998;0.77113589784247671;0.81156123947745828;0.75092322702498615;1.2562399974622549;1.3977286931846904;1.4684730410459077;1.5695363951333616;1.4078350285934356;0.76102956243373143;0.42752049394513397;0.053586083821554976;-0.72460174265183908;-0.61343205315563998;-0.63364472397313076;-0.47194335743320465;-0.40119900957198701;-0.39109267416324162;-0.31024199089327864;-0.93683478623549199;-1.6745972710739048;-1.9980000041537569;-2.4628914329560443;-3.7261833590492164;-4.7064978936975184;-5.6463870867108383;-7.5362718081462239;-9.8809416229751523;-11.689975661140574;-12.862310568555039;-12.447950816796478;-11.275615909382015;-11.04317019498087;-10.851149822214708;-9.7495592626614602;-8.1224392618534562;-7.8697808766348212;-7.192656404248881;-6.7681903170815749;-5.9495771489731997;-5.312878018222241;-4.5852218687925737;-2.7458688244009144;-0.73470807806058458;-0.39109267416324162;0.29613813363144403;1.5897490659508524;2.8732536628615155;2.4386812402854643;1.5897490659508524;1.2057083204185279;3.0753803710364229;3.1764437251238768;3.0652740356276773;2.0647468301618854;-1.3511945379940524;-4.6458598812450465;-3.9990544150853413;1.2562399974622549;4.7328193780706656;3.7929301850573447;0.62964720212004155;-2.0384253457887382;-1.9272556562925391;0.42752049394513397;1.8019821095345052;1.0339006184698567;0.2759254628139533;-0.12832795353586182;-0.15864695976209794;0.5690091896675693;1.0035816122436205;1.4987920472721439;1.3573033515497088;1.1854956496010374;0.87219925192993053;0.72060422079874986;0.78124223325122222;0.42752049394513397;-0.027264599448408047;0.17486210872649952;0.38709515231015246;0.5589028542588238;0.6801788791637684;0.29613813363144403;0.053586083821554976;-0.077796276492134941;0.19507477954399027;0.34666981067517094;0.19507477954399027;0.134436767091518;0.24560645658771715;-0.027264599448408047;0.094011425456536485;0.23550012117897176;0.16475577331775415;0.39720148771889779;0.29613813363144403;-0.10811528271837106;0.38709515231015246;0.215287450361481;0.20518111495273564;0.43762682935387931;0.083905090047791106
Accel Y : 0.29461953562690174;0.29461953562690174;0.51906445177802718;0.51906445177802718;0.43744811863216343;0.49866036849156131;0.44765016027539639;0.27421545234043576;0.13138686933517416;0.46805424356186237;0.34562974384306661;0.33542770219983364;0.53946853506449322;0.50886241013479427;0.36603382712953259;0.54967057670772612;0.35583178548629962;0.51906445177802718;0.34562974384306661;0.41704403534569745;0.38643791041599856;0.33542770219983364;0.26401341069720285;0.46805424356186237;0.44765016027539639;0.38643791041599856;0.24360932741073688;0.19259911919457198;0.45785220191862941;0.33542770219983364;0.18239707755133902;0.48845832684832829;0.18239707755133902;0.45785220191862941;0.5292664934212602;0.13138686933517416;0.40684199370246449;0.37623586877276555;0.33542770219983364;0.37623586877276555;0.13138686933517416;0.46805424356186237;0.49866036849156131;0.49866036849156131;0.35583178548629962;0.0089623696163784287;-0.072653963529485388;0.070174619475776273;0.019164411259611401;-0.49093767090203738;-1.0214438363501521;-0.6949785037666969;-1.3785152938633063;-1.6029602100144318;-1.7355867513764605;-2.4803357913324677;-2.847609290488855;-2.9700337902076503;-3.3373072893640376;-3.4291256641531342;-3.4393277057963676;-4.1636726624659088;-4.0616522460335789;-4.0820563293200447;-3.8576114131689199;-3.7657930383798224;-3.9902379545309481;-4.1228644958929772;-4.2962992038279371;-4.1228644958929772;-4.2962992038279371;-4.2860971621847046;-4.7859972027031201;-4.8676135358489843;-4.4595318701196645;-5.1226645769298083;-4.9390278273516151;-4.8676135358489843;-5.2246849933621382;-5.4593319511564964;-5.6837768673076221;-5.6327666590914571;-6.4591320321933283;-7.0814565724305396;-6.7039810316309199;-6.7447891982038515;-6.4081218239771633;-6.1020605746801744;-5.4185237845835648;-5.3777156180106331;-4.5411482032655286;-2.5619521244783314;-1.0010397530636861;-0.61336217062083309;0.090578702762242239;1.0801767421558408;2.1717951979817691;2.4778564472787585;4.0591729019798697;5.8751363144753403;5.2324076909516615;3.7429096110396478;3.6918994028234828;4.0387688186934039;2.9573524045107082;1.1719951169449376;1.7739155738956833;2.0085625316900417;1.5800767826742568;1.3556318665231313;1.4372481996689952;1.5188645328148589;1.5698747410310239;1.1311869503720058;1.2842175750205005;0.77411549285885162;0.67209507642652189;0.36603382712953259;-0.05224988024301943;0.24360932741073688;0.25381136905396984;0.20280116083780497;-0.031845796956553478;0.18239707755133902;0.21300320248103796;0.0089623696163784287;-0.031845796956553478;-0.25629071310767892;-0.48073562925880436;-0.34810908789677575;-0.64396829555053192;-0.45012950432910553;-0.67457442048023097;-0.68477646212346388;-0.52154379583173627;-0.57255400404790124;-0.52154379583173627;-0.58275604569113426;-0.64396829555053192;-0.55214992076143521;-0.39911929611294061;-0.43992746268587252;-0.24608867146444596;-0.42972542104263955;-0.20528050489151409;-0.31750296296707681;-0.36851317118324167;-0.23588662982121297;-0.39911929611294061;-0.011441713670087523
Accel Z : 9.4685930631869368;9.649154454509965;9.548842570441618;9.488655440000608;9.6792480197304691;9.7594975269851485;9.4585618747801021;9.7996222806124891;9.5889673240689568;9.3281564254912492;9.4485306863732674;9.7294039617646444;9.5689049472552856;9.7494663385783138;9.709341584950975;9.6591856429168015;9.5689049472552856;9.5689049472552856;9.6591856429168015;9.6290920776962956;9.7294039617646444;9.6190608892894591;9.548842570441618;9.5889673240689568;9.7394351501714791;9.5388113820347815;9.6892792081373038;9.5287801936279468;9.6993103965441403;9.769528715391985;9.6792480197304691;9.6792480197304691;9.8999341646808361;10.050401990783362;10.281119324140564;10.752585179261802;10.832834686516481;10.973271324212169;11.284238164824052;11.695516889504283;12.066670860557172;12.6785733533741;13.019633759206487;13.019633759206487;12.989540193985983;12.778885237442449;12.688604541780935;12.437824831610062;12.257263440287035;11.575142628622263;10.973271324212169;10.240994570513223;9.4384994979664327;8.7062227442674871;7.9338212369412;6.469267729543307;5.6768038454033514;4.3727493525148171;2.9984765407784373;2.2260750334521515;0.79161509127476304;-0.1713789957813858;-1.2848409089400579;-2.6290201554559323;-3.4716399816300627;-4.3543845614315329;-6.3305286775780045;-7.4439905907366768;-8.748045083625211;-10.06213076492058;-11.356154069402281;-12.479647170967787;-12.961144214495862;-12.840769953613844;-13.302204620328249;-13.372422939176094;-11.787495170896182;-10.533596620041822;-10.71415801136485;-11.396278823029622;-11.005062475163061;-11.0451872287904;-11.075280794010904;-10.98500009834939;-11.677152098420999;-11.396278823029622;-10.57372137366916;-8.8985129097277351;-7.313585141447823;-5.7988756920157556;-5.0665989383168091;-3.3612969091548788;-2.0271488510458391;-1.2246537784990486;0.16968141005100024;0.92202054056361649;1.4737359029395352;2.2862621638931606;4.9846518453317445;8.2949440195872555;8.335068773214596;6.6799226860868401;7.0711390339534006;13.430912483886717;16.20955167257998;17.904822513335073;17.403263092993331;16.119270976918465;14.75502935358892;14.504249643418049;14.624623904300067;14.373844194129195;13.410850107073045;12.71869810700144;12.086733237370842;11.44473717933341;10.702429237227628;10.220932193699554;10.13065149803804;9.8598094110534973;9.649154454509965;9.4485306863732674;9.4786242515937733;9.5889673240689568;9.3883435559322574;8.9469712660315235;8.8065346283358359;8.8165658167426706;9.057314338506707;9.278000483457074;9.1576262225750575;9.1375638457613864;9.1676574109818905;9.267969295050241;9.548842570441618;9.3983747443390921;9.4685930631869368;9.3281564254912492;9.4585618747801021;9.7394351501714791;9.3181252370844145;9.6892792081373038;9.4384994979664327;9.3783123675254245;9.5889673240689568;9.4084059327459286;9.4184371211527633;9.5588737588484509;9.4986866284074427;9.3983747443390921
Gyro X : 0.20458071818248552;0.12146980142085077;0.04475203210241871;0.089504064204837419;0.12786294886405344;0.20458071818248552;0.14704239119366147;0.063931474432026722;0.2301533079552962;0.15343553863686413;0.19179442329608018;0.33244366704653899;0.14704239119366147;0.13425609630725613;0.031965737216013361;0.13425609630725613;0.15343553863686413;0.20458071818248552;0.15982868608006681;0.19818757073928284;0.14064924375045879;0.39637514147856567;0.15343553863686413;0.25572589772810689;0.031965737216013361;0.083110916761634748;-0.012786294886405345;0.1854012758528775;0.20458071818248552;0.038358884659216032;0.083110916761634748;0.12146980142085077;0.057538326988824051;0.070324621875229393;0.10229035909124276;-0.057538326988824051;-0.1150766539776481;-0.22376016051209355;-0.019179442329608016;-0.019179442329608016;0.0063931474432026725;-0.21097386562568818;-0.30687107727372825;-0.26211904517130957;0.09589721164804009;0.72242566108190198;0.88864749460517145;1.0037241485828197;1.0292967383556302;0.99093785369641418;1.3105952258565479;1.4000992900613853;1.444851322163804;1.5087827965958307;1.406492437504588;0.99733100113961692;0.78635713551392872;0.54981068011542988;0.057538326988824051;0.12786294886405344;0.1150766539776481;0.21736701306889086;0.26211904517130957;0.26851219261451226;0.31965737216013362;-0.076717769318432064;-0.54341753267222714;-0.74799825085471272;-1.0420830332420357;-1.8412264636423696;-2.4613617656330287;-3.0559244778508776;-4.2514430497297768;-5.7346532565527975;-6.8790266488860752;-7.6206317522975855;-7.3585127071262759;-6.6169076037147656;-6.4698652125211042;-6.3483954111002534;-5.6515423397911624;-4.622245601435532;-4.4624169153554654;-4.0340760366608865;-3.7655638440463739;-3.2477189011469574;-2.8449506122251891;-2.3846439963145967;-1.2210911616517104;0.05114517954562138;0.26851219261451226;0.70324621875229398;1.521569091482236;2.3334988167689756;2.0585934767112604;1.521569091482236;1.2786294886405345;2.4613617656330287;2.5252932400650554;2.454968618189826;1.8220470213127617;-0.33883681448974162;-2.4230028809738129;-2.013841444608842;1.3105952258565479;3.509837946318267;2.9152752341004184;0.91422008437798219;-0.77357084062752335;-0.70324621875229398;0.78635713551392872;1.6558251877894921;1.1699459821060891;0.69045992386588861;0.43473402613778173;0.41555458380817373;0.87586119971876608;1.150766539776481;1.4640307644934121;1.3745267002885746;1.2658431937541292;1.0676556230148464;0.97175841136680619;1.0101172960260223;0.78635713551392872;0.49866550056980846;0.62652844943386188;0.76078454574111798;0.86946805227556345;0.94618582159399556;0.70324621875229398;0.54981068011542988;0.46669976335379509;0.63931474432026725;0.73521195596830735;0.63931474432026725;0.60095585966105125;0.67128048153628062;0.49866550056980846;0.57538326988824051;0.66488733409307799;0.62013530199065925;0.76717769318432072;0.70324621875229398;0.4475203210241871;0.76078454574111798;0.65210103920667262;0.64570789176346988;0.79275028295713135;0.56899012244503788
Gyro Y : 1.3809198477317772;1.3809198477317772;1.521569091482236;1.521569091482236;1.4704239119366147;1.5087827965958307;1.4768170593798173;1.368133552845372;1.2786294886405345;1.4896033542662226;1.4128855849477906;1.406492437504588;1.5343553863686414;1.5151759440390333;1.4256718798341959;1.5407485338118441;1.4192787323909932;1.521569091482236;1.4128855849477906;1.4576376170502092;1.4384581747206013;1.406492437504588;1.3617404054021691;1.4896033542662226;1.4768170593798173;1.4384581747206013;1.3489541105157639;1.3169883732997505;1.48321020682302;1.406492437504588;1.3105952258565479;1.5023896491526281;1.3105952258565479;1.48321020682302;1.5279622389254388;1.2786294886405345;1.4512444696070066;1.4320650272773987;1.406492437504588;1.4320650272773987;1.2786294886405345;1.4896033542662226;1.5087827965958307;1.5087827965958307;1.4192787323909932;1.2019117193221025;1.150766539776481;1.2402706039813185;1.2083048667653051;0.88864749460517145;0.55620382755863251;0.76078454574111798;0.33244366704653899;0.19179442329608018;0.10868350653444543;-0.35801625681934968;-0.58816956477464588;-0.66488733409307799;-0.89504064204837419;-0.95257896903719819;-0.95897211648040082;-1.4128855849477906;-1.3489541105157639;-1.3617404054021691;-1.2210911616517104;-1.1635528346628863;-1.3042020784133452;-1.3873129951749799;-1.4959965017094254;-1.3873129951749799;-1.4959965017094254;-1.4896033542662226;-1.8028675789831536;-1.8540127585287749;-1.5982868608006682;-2.013841444608842;-1.8987647906311937;-1.8540127585287749;-2.0777729190408687;-2.2248153102345301;-2.3654645539849888;-2.3334988167689756;-2.8513437596683917;-3.2413257537037548;-3.0047792983052561;-3.0303518880780667;-2.8193780224523786;-2.6275835991562984;-2.1992427204617195;-2.1736701306889086;-1.6494320403462894;-0.40916143636497104;0.56899012244503788;0.81192972528673935;1.2530568988677238;1.873192200858383;2.557258977281069;2.7490534005771492;3.7399912542735634;4.8779714991636389;4.4752032102418706;3.5418036835342805;3.509837946318267;3.7272049593871581;3.0495313304076745;1.9307305278472071;2.3079262269961647;2.454968618189826;2.1864564255753138;2.0458071818248551;2.0969523613704766;2.1480975409160981;2.1800632781321112;1.9051579380743964;2.0010551497224363;1.6813977775623028;1.6174663031302761;1.4256718798341959;1.1635528346628863;1.3489541105157639;1.3553472579589665;1.3233815207429531;1.1763391295492918;1.3105952258565479;1.329774668186156;1.2019117193221025;1.1763391295492918;1.035689885798833;0.89504064204837419;0.97815155881000893;0.79275028295713135;0.91422008437798219;0.77357084062752335;0.76717769318432072;0.86946805227556345;0.83750231505955008;0.86946805227556345;0.83110916761634746;0.79275028295713135;0.85028860994595545;0.94618582159399556;0.92061323182118482;1.0420830332420357;0.92700637926438745;1.0676556230148464;0.99733100113961692;0.96536526392360356;1.0484761806852383;0.94618582159399556;1.189125424435697
Gyro Z : 5.2487740508693941;5.3638507048470423;5.2999192304150151;5.2615603457557993;5.3830301471766502;5.4341753267222712;5.2423809034261915;5.4597479164950826;5.3254918201878265;5.1592699866645564;5.2359877559829888;5.4149958843926633;5.3127055253014204;5.4277821792790686;5.4022095895062581;5.3702438522902449;5.3127055253014204;5.3127055253014204;5.3702438522902449;5.351064409960637;5.4149958843926633;5.3446712625174344;5.2999192304150151;5.3254918201878265;5.421389031835866;5.2935260829718125;5.3894232946198528;5.2871329355286099;5.3958164420630554;5.4405684741654738;5.3830301471766502;5.3830301471766502;5.5236793909271089;5.6195766025751492;5.7666189937688106;6.0670969235993359;6.1182421031449579;6.2077461673497947;6.405933738089078;6.6680527832603875;6.9045992386588866;7.2945812326942496;7.5119482457631399;7.5119482457631399;7.492768803433532;7.3585127071262759;7.3009743801374523;7.1411456940573848;7.0260690400797374;6.5913350139419551;6.2077461673497947;5.7410464039960001;5.2295946085397862;4.7628948451859907;4.2706224920593856;3.3372229653517951;2.8321643173387838;2.0010551497224363;1.1251939500036703;0.63292159687706462;-0.28129848750091757;-0.89504064204837419;-1.6046800082438708;-2.4613617656330287;-2.9983861508620535;-3.5609831258638884;-4.8204331721748153;-5.5300725383703115;-6.3611817059866587;-7.1986840210462093;-8.0234000412193538;-8.7394325548580536;-9.0463036321317816;-8.96958586281335;-9.2636706452006727;-9.3084226773030903;-8.2983053812770695;-7.4991619508767347;-7.6142386048543829;-8.0489726309921643;-7.79963988070726;-7.8252124704800714;-7.8443919128096793;-7.7868535858208547;-8.2279807594018397;-8.0489726309921643;-7.5247345406495452;-6.457078917634699;-5.4469616216086765;-4.4815963576850733;-4.0148965943312787;-2.9280615289868241;-2.0777729190408687;-1.5663211235846548;-0.67767362897948324;-0.19818757073928284;0.15343553863686413;0.67128048153628062;2.3910371437577993;4.5007758000146811;4.5263483897874917;3.4714790616590512;3.7208118119439555;7.7740672909344495;9.5449691327015902;10.625411050602841;10.305753678442708;9.4874308057127656;8.6179627534372027;8.4581340673571361;8.5348518366755677;8.3750231505955011;7.7612809960480442;7.3201538224670601;6.9173855335452918;6.5082240971803209;6.0351311863833228;5.7282601091095948;5.6707217821207703;5.4981068011542984;5.3638507048470423;5.2359877559829888;5.2551671983125967;5.3254918201878265;5.197628871323773;4.9163303838228547;4.8268263196180179;4.8332194670612205;4.9866550056980845;5.1273042494485432;5.0505864801301108;5.0378001852437055;5.0569796275733143;5.1209111020053406;5.2999192304150151;5.2040220187669757;5.2487740508693941;5.1592699866645564;5.2423809034261915;5.421389031835866;5.1528768392213538;5.3894232946198528;5.2295946085397862;5.1912357238805704;5.3254918201878265;5.2104151662101783;5.2168083136533809;5.3063123778582177;5.267953493199002;5.2040220187669757
COMMAND 1 SAMPLE 4
Accel X : -0.017158264039662668;0.20518111495273564;0.19507477954399027;-0.077796276492134941;-0.47194335743320465;-0.16875329517084334;0.0030544067778280866;0.0030544067778280866;0.26581912740520791;0.25571279199646252;0.41741415853638858;0.57911552507631459;0.5589028542588238;0.65996620834627762;0.84188024570369446;0.94294359979114828;0.62964720212004155;0.42752049394513397;0.58922186048505998;0.74081689161624065;0.77113589784247671;0.5589028542588238;0.86209291652118525;0.71049788539000458;0.5690091896675693;0.6801788791637684;0.38709515231015246;0.6801788791637684;0.69028521457251379;0.49826484180635161;0.47805217098886088;0.31635080444893476;0.38709515231015246;0.38709515231015246;0.47805217098886088;0.37698881690140706;-0.047477270265898805;0.35677614608391628;0.32645713985768016;0.6801788791637684;1.0541132892873475;1.2057083204185279;1.1450703079660558;0.84188024570369446;2.0243214885269039;4.1567582597721779;5.7838782605801846;6.3599393788786704;6.6631294411410327;7.0774891928995931;7.2088715532132825;8.0375910567304043;8.987586585152469;8.078016398365385;6.7945118014547221;4.9046270800193366;3.5908034768824373;3.7626111788311087;3.1056993772626593;2.3275115507892652;0.85198658111243974;-0.71449540724309379;-2.0485316811974839;-3.7868213715016887;-4.2719254711214667;-6.7884029878990653;-8.7187130509694342;-10.264982368507477;-14.509643240180534;-19.249514546882118;-19.239408211473371;-19.229301876064628;-19.229301876064628;-17.349523490037988;-9.1937108151804665;-6.5256382672716864;-7.8192491995910949;-10.355939387186185;-10.750086468127254;-9.9718986416538584;-9.0825411256842674;-6.879360006577774;-5.2724526765872586;-5.0400069621861148;-4.6357535458363008;-4.0900114337640501;-2.5437421162260074;-1.1086424881841634;0.92273092897365749;1.6099617367683432;0.54879651885007852;1.1652829787835466;2.2163418612930657;3.0955930418539137;4.5407990053045024;5.2583488193254251;5.8141972668064206;8.5631204979851638;12.373208947082171;13.191822115190547;12.474272301169623;12.504591307395861;14.162030314430103;14.58649640159741;14.758304103546079;13.717351556445305;12.019487207776082;11.736509816331212;12.312570934629699;13.080652425694348;13.697138885627815;13.99022261248143;12.019487207776082;10.331729194515605;9.6343920513121724;8.1790797524528394;4.1668645951809236;-0.90651578000925592;-2.9277828617583315;-1.9171493208837938;-0.72460174265183908;-1.1389614944103996;-1.7554479543438677;-2.088957022832465;-2.0283190103799926;-1.3511945379940524;-0.25971031384955173;-0.017158264039662668;-0.62353838856438526;-1.3410882025853073;-1.4320452212640156;-1.2299185130891079;-0.79534609051305682;-0.5831130469294038;-1.2299185130891079;-1.6139592586214322;-1.7958732959788493;-1.2804501901328349;-0.82566509673929289;-1.2804501901328349;-1.5331085753514693;-1.6341719294389232;-1.1187488235929091;-1.0884298173666729;-1.1894931714541264;-1.2198121776803625;-1.1793868360453812;-1.3511945379940524;-1.1086424881841634;-1.4219388858552702
Accel Y : 1.039368575582909;0.91694407586411331;1.1515910336584718;0.94755020079381225;1.059772658869375;0.97815632572351119;1.0291665339396761;1.0801767421558408;1.0699747005126079;1.2434094084475684;1.2230053251611026;1.3352277832366652;1.2230053251611026;1.1209849087287727;1.2128032835178695;1.3964400330960631;1.3760359498095971;1.2638134917340347;1.3454298248798982;1.3148236999501994;1.2536114500908013;1.2026012418746366;1.1107828670855397;1.3556318665231313;1.2230053251611026;1.3046216583069665;1.1107828670855397;1.059772658869375;1.2842175750205005;1.3454298248798982;1.1821971585881708;1.1719951169449376;1.00876245065321;1.1107828670855397;1.1107828670855397;1.2026012418746366;1.2638134917340347;1.1005808254423068;1.1107828670855397;1.0699747005126079;1.4678543245986939;1.2332073668043355;1.6106829076039557;1.5086624911716258;1.1107828670855397;1.2536114500908013;1.00876245065321;0.59047874328065808;0.79451957614531754;0.73330732628591977;0.070174619475776273;-0.4603315459723385;-0.7051805454099298;-0.41952337939940659;-0.99083771142045318;-1.5825561267279658;-1.18467650264188;-1.5621520434414999;-1.7865969595926254;-0.52154379583173627;-0.34810908789677575;-0.7051805454099298;-0.68477646212346388;-0.6949785037666969;-0.18487642160504814;-0.36851317118324167;-1.2356867108580447;-0.65417033719376505;0.44765016027539639;0.11098278604870819;0.27421545234043576;-0.15427029667534919;-1.3275050856471415;-1.2050805859283458;-3.4291256641531342;-4.7349869944869551;-5.6327666590914571;-5.6225646174482238;-5.143068660216275;-5.5613523675888263;-6.0612524081072419;-5.5001401177294289;-5.8062013670264179;-6.0510503664640094;-5.7551911588102538;-6.1530707828963385;-5.8266054503128837;-5.3675135763673998;-5.1940788684324399;-5.8266054503128837;-5.1838768267892066;-4.1126624542497439;-3.5617522055151634;-3.2454889145749406;-2.7863970406294571;-2.0416480006734496;-1.3887173355065392;-1.1642724193554137;0.0089623696163784287;-1.3785152938633063;-1.3377071272903744;-1.4703336686524029;-1.7559908346629263;-2.1130622921760804;-2.2864970001110412;-2.2762949584678083;-2.2252847502516433;-2.306901083397507;-2.0518500423166826;-1.9396275842411199;-1.6233642933008978;-1.7355867513764605;-1.4703336686524029;-1.2866969190742095;-0.97043362813398726;-0.57255400404790124;-0.33790704625354279;-0.05224988024301943;0.84552978436148241;1.1923992002314037;0.77411549285885162;0.75371140957238569;1.1515910336584718;0.97815632572351119;1.2536114500908013;1.1209849087287727;1.1719951169449376;0.92714611750734621;0.70270120135622072;0.80472161778855056;0.96795428408027817;1.1209849087287727;1.2230053251611026;1.2026012418746366;0.90674203422088029;1.1923992002314037;1.0495706172261421;1.1923992002314037;1.0189644922964429;1.2536114500908013;0.98835836736674409;1.0699747005126079;1.3250257415934323;1.1821971585881708;1.1821971585881708;1.1515910336584718;1.2026012418746366;1.059772658869375;1.4270461580257621;1.0903787837990737
Accel Z : 10.100557932817535;9.7494663385783138;9.8196846574261585;9.7996222806124891;9.8397470342398297;9.8999341646808361;9.8999341646808361;9.8999341646808361;9.6190608892894591;9.7394351501714791;9.709341584950975;9.7394351501714791;9.6391232661031303;9.428468309559598;9.4685930631869368;9.2980628602707451;9.3381876138980839;9.1776885993887252;9.3582499907117533;9.5889673240689568;9.217813353016064;9.4084059327459286;9.2579381066434046;9.8999341646808361;9.5789361356621203;9.6391232661031303;9.7895910922056526;9.7193727733578097;9.7494663385783138;9.9701524835286808;10.01027723715602;9.9801836719355173;9.930027729901342;10.090526744410701;10.13065149803804;10.431587150243086;10.632210918379783;11.123739150314695;11.3845500488924;12.006483730116162;12.277325817100705;13.029664947613322;13.812097643346442;13.771972889719104;13.691723382464422;14.203313991213003;14.032783788296809;13.380756541852543;12.909290686731302;12.036577295336668;10.481743092277261;9.057314338506707;7.9538836137548703;6.1282073237109209;4.3326245988874774;3.1991003089151349;1.8649522508060956;1.0423948014456352;0.74145914924058864;0.47061706225604677;-0.37200276391808346;-1.194560213278544;-1.1644666480580392;-1.4152463582289112;-0.88359337266666249;-2.1274607351141883;-2.6490825322696021;-0.19144137259505556;4.3326245988874774;9.8397470342398297;6.4592365411364723;0.93205172897045141;1.323268076837012;3.1288819900672911;6.0981137584904159;5.8974899903537192;4.2323127148191277;1.7345468015172423;0.55086656951072588;-0.37200276391808346;-1.0340611987691859;-0.46228345957959743;0.26999329411934908;-0.10116067693354161;-1.1644666480580392;-1.4052151698220765;-1.0440923871760206;-0.56259534364794628;-1.1143107060238648;-1.5055270538904255;-1.6860884452134532;-1.3049032857537277;-0.85349980744615794;-1.0440923871760206;-1.1744978364648742;-0.071067111713036951;-0.30178444507023927;-0.030942358085697425;1.5339230333805445;1.9652641348744444;2.5169794972503627;2.1558567146043073;2.4266988015888491;2.2962933522999958;2.6172913813187115;2.7978527726417401;2.3263869175205003;2.3665116711478396;2.1558567146043073;2.1558567146043073;1.9251393812471049;3.3696305118313283;2.8480087146759141;2.958351787151098;3.5100671495270164;3.3696305118313283;3.7508156712910536;5.3257122511641306;7.2115756716490882;8.5758172949786324;9.217813353016064;9.3983747443390921;9.8598094110534973;10.351337642988407;10.551961411125106;10.511836657497765;10.662304483600289;10.331275266174737;10.341306454581574;10.23096338210639;10.261056947326892;10.000246048749187;10.140682686444874;10.150713874851709;9.8798717878671685;9.7193727733578097;9.5388113820347815;9.548842570441618;9.5187490052211121;9.3181252370844145;9.1375638457613864;9.2880316718639087;9.3381876138980839;9.6190608892894591;9.4986866284074427;9.6692168313236362;9.4084059327459286;9.488655440000608;9.548842570441618;9.7193727733578097
Gyro X : 0.50505864801301115;0.64570789176346988;0.63931474432026725;0.46669976335379509;0.21736701306889086;0.40916143636497104;0.51784494289941652;0.51784494289941652;0.68406677642268598;0.67767362897948324;0.77996398807072609;0.88225434716196882;0.86946805227556345;0.93339952670759019;1.0484761806852383;1.112407655117265;0.91422008437798219;0.78635713551392872;0.88864749460517145;0.98454470625321155;1.0037241485828197;0.86946805227556345;1.0612624755716435;0.96536526392360356;0.87586119971876608;0.94618582159399556;0.76078454574111798;0.94618582159399556;0.95257896903719819;0.83110916761634746;0.81832287272994209;0.71603251363869935;0.76078454574111798;0.76078454574111798;0.81832287272994209;0.75439139829791535;0.48587920568340309;0.74160510341150998;0.72242566108190198;0.94618582159399556;1.1827322769924944;1.2786294886405345;1.2402706039813185;1.0484761806852383;1.796474431539951;3.1454285420557149;4.1747252804113453;4.5391346846738978;4.7309291079699776;4.9930481531412871;5.0761590699029222;5.6003971602455414;6.201353019906592;5.6259697500183519;4.8140400247316126;3.6185214528527125;2.787412285236365;2.8960957917708106;2.480541207962637;1.9882688548360312;1.0548693281284409;0.063931474432026722;-0.77996398807072609;-1.8795853483015856;-2.1864564255753138;-3.7783501389327796;-4.9994413005844898;-5.9775928593944991;-8.6627147855396203;-11.661100936401674;-11.654707788958472;-11.648314641515269;-11.648314641515269;-10.459189217079572;-5.2999192304150151;-3.6121283054095099;-4.4304511781394522;-6.0351311863833228;-6.2844639366682271;-5.7921915835416211;-5.2295946085397862;-3.8358884659216033;-2.8193780224523786;-2.6723356312587172;-2.4166097335306103;-2.0713797715976661;-1.0932282127876569;-0.1854012758528775;1.0996213602308598;1.5343553863686414;0.86307490483236082;1.2530568988677238;1.9179442329608016;2.4741480605194344;3.3883681448974166;3.8422816133648063;4.1939047227409532;5.9328408272920798;8.343057413379487;8.8609023562789044;8.4069888878115151;8.4261683301411221;9.4746445108263604;9.7431567034408726;9.8518402099753182;9.1933460233254429;8.1192972528673941;7.9402891244577187;8.3046985287202713;8.7905777344036746;9.1805597284390377;9.3659610042919148;8.1192972528673941;7.0516416298525479;6.610514456271563;5.6899012244503782;3.1518216894989175;-0.057538326988824051;-1.3361678156293586;-0.69685307130909124;0.057538326988824051;-0.20458071818248552;-0.59456271221784851;-0.80553657784353672;-0.76717769318432072;-0.33883681448974162;0.35162310937614699;0.50505864801301115;0.12146980142085077;-0.33244366704653899;-0.38998199403536304;-0.26211904517130957;0.012786294886405345;0.14704239119366147;-0.26211904517130957;-0.50505864801301115;-0.62013530199065925;-0.29408478238732294;-0.0063931474432026725;-0.29408478238732294;-0.45391346846738972;-0.51784494289941652;-0.19179442329608018;-0.17261498096647215;-0.23654645539849889;-0.25572589772810689;-0.2301533079552962;-0.33883681448974162;-0.1854012758528775;-0.38358884659216036
Gyro Y : 1.8476196110855723;1.7709018417671403;1.9179442329608016;1.7900812840967484;1.8604059059719777;1.8092607264263563;1.8412264636423696;1.873192200858383;1.8667990534151804;1.9754825599496257;1.9626962650632205;2.0330208869384498;1.9626962650632205;1.8987647906311937;1.9563031176200179;2.0713797715976661;2.0585934767112604;1.9882688548360312;2.0394140343816525;2.0202345920520446;1.9818757073928284;1.949909970176815;1.8923716431879911;2.0458071818248551;1.9626962650632205;2.013841444608842;1.8923716431879911;1.8604059059719777;2.0010551497224363;2.0394140343816525;1.9371236752904097;1.9307305278472071;1.8284401687559644;1.8923716431879911;1.8923716431879911;1.949909970176815;1.9882688548360312;1.8859784957447883;1.8923716431879911;1.8667990534151804;2.1161318037000845;1.9690894125064231;2.2056358679049222;2.1417043934728954;1.8923716431879911;1.9818757073928284;1.8284401687559644;1.5663211235846548;1.6941840724487083;1.6558251877894921;1.2402706039813185;0.90782693693477945;0.75439139829791535;0.93339952670759019;0.57538326988824051;0.20458071818248552;0.45391346846738972;0.21736701306889086;0.076717769318432064;0.86946805227556345;0.97815155881000893;0.75439139829791535;0.76717769318432072;0.76078454574111798;1.0804419179012517;0.96536526392360356;0.42194773125137636;0.78635713551392872;1.4768170593798173;1.2658431937541292;1.368133552845372;1.0996213602308598;0.36440940426255231;0.44112717358098441;-0.95257896903719819;-1.7709018417671403;-2.3334988167689756;-2.3271056693257726;-2.0266277394952472;-2.2887467846665568;-2.6020110093834878;-2.2503879000073406;-2.4421823233034208;-2.5956178619402852;-2.4102165860874076;-2.6595493363723119;-2.454968618189826;-2.1672769832457059;-2.0585934767112604;-2.454968618189826;-2.0522003292680577;-1.3809198477317772;-1.035689885798833;-0.83750231505955008;-0.54981068011542988;-0.083110916761634748;0.32605051960333631;0.46669976335379509;1.2019117193221025;0.33244366704653899;0.35801625681934968;0.27490534005771494;0.09589721164804009;-0.12786294886405344;-0.23654645539849889;-0.2301533079552962;-0.19818757073928284;-0.24933275028490423;-0.089504064204837419;-0.019179442329608016;0.17900812840967484;0.10868350653444543;0.27490534005771494;0.38998199403536304;0.58816956477464588;0.83750231505955008;0.98454470625321155;1.1635528346628863;1.7261498096647216;1.9435168227336124;1.6813977775623028;1.6686114826758975;1.9179442329608016;1.8092607264263563;1.9818757073928284;1.8987647906311937;1.9307305278472071;1.7772949892103429;1.6366457454598842;1.7005772198919109;1.8028675789831536;1.8987647906311937;1.9626962650632205;1.949909970176815;1.7645086943239376;1.9435168227336124;1.8540127585287749;1.9435168227336124;1.834833316199167;1.9818757073928284;1.8156538738695589;1.8667990534151804;2.0266277394952472;1.9371236752904097;1.9371236752904097;1.9179442329608016;1.949909970176815;1.8604059059719777;2.090559213927274;1.8795853483015856
Gyro Z : 5.6515423397911624;5.4277821792790686;5.4725342113814879;5.4597479164950826;5.4853205062678931;5.5236793909271089;5.5236793909271089;5.5236793909271089;5.3446712625174344;5.421389031835866;5.4022095895062581;5.421389031835866;5.3574575574038397;5.2232014610965836;5.2487740508693941;5.1400905443349485;5.165663134107759;5.0633727750165169;5.1784494289941643;5.3254918201878265;5.0889453647893275;5.2104151662101783;5.114517954562138;5.5236793909271089;5.3190986727446239;5.3574575574038397;5.45335476905188;5.4086027369494607;5.4277821792790686;5.5684314230295273;5.5940040128023387;5.5748245704727299;5.5428588332567168;5.6451491923479598;5.6707217821207703;5.8625162054168509;5.9903791542809044;6.303643378997835;6.4698652125211042;6.8662403539996699;7.0388553349661427;7.5183413932063425;8.0170068937761521;7.9914343040033406;7.9402891244577187;8.2663396440610555;8.1576561375266099;7.7421015537184363;7.441623623887911;6.8854197963292778;5.8944819426328641;4.9866550056980845;4.2834087869457909;3.1198559522829044;1.9754825599496257;1.2530568988677238;0.40276828892176836;-0.12146980142085077;-0.31326422471693094;-0.48587920568340309;-1.0229035909124276;-1.5471416812550467;-1.5279622389254388;-1.6877909250055054;-1.3489541105157639;-2.1417043934728954;-2.4741480605194344;-0.90782693693477945;1.9754825599496257;5.4853205062678931;3.3308298179085924;-0.19179442329608018;0.057538326988824051;1.2083048667653051;3.100676509953296;2.9728135610892426;1.911551085517599;0.31965737216013362;-0.43473402613778173;-1.0229035909124276;-1.444851322163804;-1.0804419179012517;-0.61374215454745651;-0.85028860994595545;-1.5279622389254388;-1.6813977775623028;-1.4512444696070066;-1.1443733923332784;-1.4959965017094254;-1.7453292519943295;-1.8604059059719777;-1.6174663031302761;-1.329774668186156;-1.4512444696070066;-1.5343553863686414;-0.83110916761634746;-0.97815155881000893;-0.80553657784353672;0.19179442329608018;0.46669976335379509;0.81832287272994209;0.58816956477464588;0.76078454574111798;0.67767362897948324;0.88225434716196882;0.99733100113961692;0.69685307130909124;0.72242566108190198;0.58816956477464588;0.58816956477464588;0.44112717358098441;1.3617404054021691;1.0292967383556302;1.0996213602308598;1.4512444696070066;1.3617404054021691;1.6046800082438708;2.6084041568266905;3.8103158761487927;4.6797839284243565;5.0889453647893275;5.2040220187669757;5.4981068011542984;5.811371025871229;5.9392339747352825;5.913661384962472;6.0095585966105123;5.7985847309848237;5.8049778784280264;5.7346532565527975;5.7538326988824053;5.5876108653591361;5.6771149295639729;5.6835080770071755;5.5108930960407037;5.4086027369494607;5.2935260829718125;5.2999192304150151;5.2807397880854072;5.1528768392213538;5.0378001852437055;5.1336973968917459;5.165663134107759;5.3446712625174344;5.267953493199002;5.3766369997334476;5.2104151662101783;5.2615603457557993;5.2999192304150151;5.4086027369494607
COMMAND 1 SAMPLE 5
Accel X : -1.6745972710739048;-1.8565113084313214;-1.5836402523951962;-1.6948099418913953;-1.4825768983077423;-1.6745972710739048;-1.5027895691252333;-1.5937465878039416;-1.7655542897526131;-1.8666176438400668;-1.7857669605701039;-1.6240655940301778;-1.5230022399427239;-1.7554479543438677;-1.603852923212687;-1.7655542897526131;-1.7352352835263769;-1.5533212461689601;-1.603852923212687;-1.6442782648476684;-1.5937465878039416;-1.5937465878039416;-1.8160859667963398;-1.9070429854750481;-1.8666176438400668;-1.9878936687450113;-1.9980000041537569;-2.2506583893723908;-2.1597013706936825;-2.4022534205035719;-2.5639547870434978;-2.0687443520149742;-2.1495950352849373;-2.0687443520149742;-1.6139592586214322;-0.24960397844080637;1.6402807429945794;3.3381450916638031;4.3993103095820674;7.6737629820155702;10.493430561055531;11.787041493374939;13.252460127643019;14.010435283298923;13.100865096511837;11.625340126835011;9.725349069990882;7.3604665843444632;4.6822877010269384;2.7216586317303348;1.579642730542107;0.215287450361481;-1.3410882025853073;-2.2304457185549005;-2.4325724267298083;-3.241079259429438;-4.9692626143248972;-7.3139324291538257;-10.163919014420022;-13.559647711758469;-17.773989577205292;-19.239408211473371;-19.259620882290864;-19.239408211473371;-19.239408211473371;-19.198982869838392;-13.074543612138692;-10.921894170075927;-10.709661126492273;-10.113387337376295;-8.8096700696481403;-8.5165863427945254;-6.2628735466443057;-3.6251200049617625;-0.84587776755678368;0.65996620834627762;0.74081689161624065;2.0243214885269039;1.7312377616732877;2.0546404947531398;3.4189957749337658;5.1876044714642067;6.5822787578710686;7.3907855905706992;9.6141793804946829;11.301937393755162;10.634919256777966;10.60460025055173;10.826939629544126;10.09928348011446;11.817360499601175;14.434901370466227;15.758831309011873;15.667874290333165;14.303519010152538;14.354050687196265;14.445007705874973;14.333838016378774;14.131711308203867;15.546598265428219;15.233301867757113;13.636500873175342;11.756722487148702;9.755668076217118;7.5726996279281158;4.4498419866257946;1.1450703079660558;-1.0985361527754181;-1.4320452212640156;-1.0277918049142005;-1.9676809979275207;-4.9187309372811709;-3.7059706882317256;-1.4522578920815064;-2.1698077061024281;-1.9575746625187753;-1.2501311839065989;-1.6139592586214322;-1.9171493208837938;-1.5634275815777054;-1.9777873333362659;-1.8666176438400668;-1.2905565255415803;-0.80545242592180211;-0.94694112164423749;-1.391619879629034;-1.3511945379940524;-1.3815135442202888;-1.149067829819145;-0.84587776755678368;-1.149067829819145;-1.2097058422716174;-1.4219388858552702;-1.1086424881841634;-1.3410882025853073;-1.2299185130891079;-1.2703438547240895;-1.4320452212640156;-1.2804501901328349;-1.4219388858552702;-1.5836402523951962;-1.3107691963590711;-1.2602375193153441;-1.411832550446525;-1.4219388858552702;-1.1894931714541264;-1.6341719294389232;-1.3208755317678162;-1.1995995068628718;-1.2198121776803625
Accel Y : 0.3048215772701347;0.75371140957238569;0.65169099314005585;0.67209507642652189;0.66189303478328898;0.75371140957238569;0.58027670163742517;0.58027670163742517;1.059772658869375;0.75371140957238569;0.75371140957238569;0.73330732628591977;0.72310528464268664;0.78431753450208452;0.92714611750734621;0.79451957614531754;1.00876245065321;0.84552978436148241;1.0801767421558408;0.81492365943178358;0.73330732628591977;0.67209507642652189;0.64148895149682295;0.93734815915057923;0.96795428408027817;0.73330732628591977;0.90674203422088029;0.85573182600471542;0.93734815915057923;0.93734815915057923;0.92714611750734621;1.2842175750205005;1.38623799145283;1.6004808659607228;1.5188645328148589;1.2332073668043355;0.98835836736674409;1.1617930753017047;0.79451957614531754;0.11098278604870819;-0.26649275475091194;-0.58275604569113426;-1.2254846692148118;-0.40932133775617363;-0.48073562925880436;-0.80720096184225965;-1.0214438363501521;-0.57255400404790124;-0.76639279526932769;-1.5009397935821021;-1.4703336686524029;-1.3989193771497723;-2.0620520839599155;-2.3273051666839728;-1.7661928763061594;-1.08265608620955;-0.66437237883699796;-0.68477646212346388;-0.4705335876155714;0.080376661119009249;0.57007465999419205;0.65169099314005585;1.906542115257712;2.8043217798622142;-1.18467650264188;-1.103060169496016;-2.6741745825538938;-3.5821562888016292;-3.8678134548121528;-3.8882175380986186;-4.5105420783358294;-4.3779155369738012;-4.2554910372550054;-3.8882175380986186;-3.5107419972989979;-3.65357058030426;-3.5719542471583963;-3.6331664970177941;-3.3067011644343389;-1.7253847097332273;-0.76639279526932769;-1.1948785442851129;-0.67457442048023097;0.15179095262164008;1.4474502413122281;1.0495706172261421;0.27421545234043576;-0.42972542104263955;-0.91942341991782239;-0.97043362813398726;-1.1336662944257148;-1.4703336686524029;-1.3989193771497723;-1.2968989607174424;-0.85821117005842462;-0.80720096184225965;-1.0214438363501521;-0.55214992076143521;-0.95002954484752133;-0.63376625390729902;-0.58275604569113426;-0.7051805454099298;-0.84800912841519149;-0.48073562925880436;0.16199299426487307;-0.23588662982121297;-0.2766947963941449;-0.22568458817798001;0.0089623696163784287;0.26401341069720285;0.29461953562690174;0.15179095262164008;0.63128690985358993;0.45785220191862941;0.080376661119009249;0.31502361891336772;0.41704403534569745;0.45785220191862941;0.63128690985358993;0.7639134512156186;0.5292664934212602;0.44765016027539639;0.63128690985358993;0.72310528464268664;0.34562974384306661;0.44765016027539639;0.51906445177802718;0.74350936792915268;0.59047874328065808;0.58027670163742517;0.67209507642652189;0.47825628520509533;0.63128690985358993;0.51906445177802718;0.63128690985358993;0.42724607698893047;0.74350936792915268;0.58027670163742517;0.34562974384306661;0.72310528464268664;0.51906445177802718;0.39663995205923153;0.69249915971298781;0.45785220191862941;0.42724607698893047;0.65169099314005585;0.610882826567124;0.50886241013479427;0.65169099314005585;0.55987261835095914
Accel Z : 9.1375638457613864;9.207782164609231;9.1375638457613864;9.2278445414229004;9.4084059327459286;9.1977509762023963;9.1776885993887252;9.1475950341682211;9.3181252370844145;9.217813353016064;9.1977509762023963;9.1074702805408805;9.4384994979664327;9.3883435559322574;9.4485306863732674;9.4585618747801021;9.4184371211527633;9.368281179118588;9.3783123675254245;9.5789361356621203;9.4685930631869368;9.5287801936279468;9.2278445414229004;9.5989985124757915;9.3983747443390921;9.4786242515937733;9.6391232661031303;9.8497782226466626;9.9500901067150131;10.180807440072213;10.190838628479048;10.802741121295977;11.454768367740245;12.076702048964007;12.166982744625521;12.839072367883457;12.999571382392817;12.65851097656043;11.625298570656438;10.240994570513223;8.5858484833854689;7.5024801354473007;6.0479578164562415;5.0348077873659189;3.7207221060705491;2.6273225697255471;1.9050770044334353;1.8047651203650863;1.0825195550729747;0.34021161296719332;-0.16134780737455093;-0.36197157551124859;-1.0541235755828555;-1.6359325031792789;-1.4152463582289112;-0.95381169151450673;-1.0641547639896904;-1.2246537784990486;-0.43218989435909277;0.81167746808843289;3.9614706278345864;9.2980628602707451;10.01027723715602;5.4962424540803241;5.4962424540803241;4.0216577582755955;3.8711899321730727;3.0586636712194468;3.2793498161698138;2.4467611784025185;1.2530497579891677;-0.25162850303606488;-0.73312554656413931;-0.10116067693354161;0.65117845357907467;0.44052349703554211;-1.4553711118562509;-1.8064627060954719;-1.375121604601572;-0.15131661896771603;-1.6559948799929485;-2.3180533148440507;-2.80958154677896;-2.1174295467073532;0.15965022164416537;0.26999329411934908;-1.375121604601572;-1.1143107060238648;0.83173984490210262;1.8047651203650863;1.4837670913463701;1.1928626275481582;1.3633928304643514;1.222956192768663;1.3834552072780211;0.8217086564952677;0.84177103330893743;0.54083538110389084;0.42046112022187232;0.78158390286792812;0.96214529419095607;0.87186459852944209;1.4536735261258653;2.2361062218589862;3.1088196132536212;4.3426557872943121;5.2655251207231215;5.4460865120461497;7.0711390339534006;7.9438524253480347;8.4353806572829431;8.1545073818915679;9.1175014689477152;9.1776885993887252;9.4986866284074427;9.8598094110534973;9.9199965414945073;9.7895910922056526;9.8096534690193238;10.01027723715602;9.930027729901342;9.769528715391985;9.9199965414945073;9.7594975269851485;9.6892792081373038;9.6892792081373038;9.4986866284074427;9.2980628602707451;9.2980628602707451;9.1977509762023963;9.2378757298297351;9.1776885993887252;9.2579381066434046;9.428468309559598;9.4384994979664327;9.3983747443390921;9.2278445414229004;9.4184371211527633;9.5889673240689568;9.5588737588484509;9.4184371211527633;9.5287801936279468;9.5287801936279468;9.5889673240689568;9.5989985124757915;9.649154454509965;9.4986866284074427;9.3883435559322574;9.5889673240689568;9.3181252370844145
Gyro X : -0.54341753267222714;-0.65849418664987525;-0.48587920568340309;-0.55620382755863251;-0.42194773125137636;-0.54341753267222714;-0.43473402613778173;-0.49227235312660578;-0.60095585966105125;-0.66488733409307799;-0.61374215454745651;-0.51145179545621378;-0.4475203210241871;-0.59456271221784851;-0.49866550056980846;-0.60095585966105125;-0.58177641733144314;-0.46669976335379509;-0.49866550056980846;-0.52423809034261915;-0.49227235312660578;-0.49227235312660578;-0.63292159687706462;-0.69045992386588861;-0.66488733409307799;-0.74160510341150998;-0.74799825085471272;-0.90782693693477945;-0.85028860994595545;-1.0037241485828197;-1.1060145076740624;-0.79275028295713135;-0.84389546250275271;-0.79275028295713135;-0.50505864801301115;0.35801625681934968;1.5535348286982493;2.6275835991562984;3.2988640806925789;5.3702438522902449;7.15393198894379;7.9722548616737328;8.8992612409381202;9.3787472991783201;8.8033640292900799;7.8699645025824898;6.6680527832603875;5.1720562815509616;3.4778722091022538;2.2376016051209353;1.5151759440390333;0.65210103920667262;-0.33244366704653899;-0.89504064204837419;-1.0229035909124276;-1.5343553863686414;-2.6275835991562984;-4.1107938059793181;-5.913661384962472;-8.0617589258785696;-10.727701409694085;-11.654707788958472;-11.667494083844877;-11.654707788958472;-11.654707788958472;-11.629135199185662;-7.7548878486048416;-6.3931474432026727;-6.2588913468954166;-5.8816956477464588;-5.0569796275733143;-4.8715783517204363;-3.4459064718862402;-1.7772949892103429;-0.019179442329608016;0.93339952670759019;0.98454470625321155;1.796474431539951;1.6110731556870734;1.8156538738695589;2.6787287787019198;3.7975295812623875;4.6797839284243565;5.1912357238805704;6.5977281613851577;7.6653837844000039;7.2434360531486277;7.2242566108190198;7.3649058545694785;6.9045992386588866;7.9914343040033406;9.6472594917928323;10.484761806852383;10.427223479863558;9.5641485750311972;9.5961143122472112;9.6536526392360358;9.583328017360806;9.4554650684967534;10.350505710545127;10.152318139805844;9.1422008437798219;7.9530754193441249;6.6872322255899954;5.3063123778582177;3.3308298179085924;1.2402706039813185;-0.17900812840967484;-0.38998199403536304;-0.13425609630725613;-0.72881880852510461;-2.5956178619402852;-1.8284401687559644;-0.40276828892176836;-0.85668175738915808;-0.72242566108190198;-0.27490534005771494;-0.50505864801301115;-0.69685307130909124;-0.47309291079699778;-0.73521195596830735;-0.66488733409307799;-0.30047792983052563;0.0063931474432026725;-0.083110916761634748;-0.36440940426255231;-0.33883681448974162;-0.35801625681934968;-0.21097386562568818;-0.019179442329608016;-0.21097386562568818;-0.24933275028490423;-0.38358884659216036;-0.1854012758528775;-0.33244366704653899;-0.26211904517130957;-0.28769163494412026;-0.38998199403536304;-0.29408478238732294;-0.38358884659216036;-0.48587920568340309;-0.31326422471693094;-0.28129848750091757;-0.37719569914895767;-0.38358884659216036;-0.23654645539849889;-0.51784494289941652;-0.31965737216013362;-0.24293960284170155;-0.25572589772810689
Gyro Y : 1.3873129951749799;1.6686114826758975;1.6046800082438708;1.6174663031302761;1.6110731556870734;1.6686114826758975;1.5599279761414522;1.5599279761414522;1.8604059059719777;1.6686114826758975;1.6686114826758975;1.6558251877894921;1.6494320403462894;1.6877909250055054;1.7772949892103429;1.6941840724487083;1.8284401687559644;1.7261498096647216;1.873192200858383;1.7069703673351135;1.6558251877894921;1.6174663031302761;1.5982868608006682;1.7836881366535455;1.8028675789831536;1.6558251877894921;1.7645086943239376;1.7325429571079243;1.7836881366535455;1.7836881366535455;1.7772949892103429;2.0010551497224363;2.064986624154463;2.1992427204617195;2.1480975409160981;1.9690894125064231;1.8156538738695589;1.9243373804040045;1.6941840724487083;1.2658431937541292;1.0292967383556302;0.83110916761634746;0.42834087869457904;0.93979267415079282;0.89504064204837419;0.69045992386588861;0.55620382755863251;0.83750231505955008;0.71603251363869935;0.25572589772810689;0.27490534005771494;0.31965737216013362;-0.09589721164804009;-0.26211904517130957;0.089504064204837419;0.51784494289941652;0.77996398807072609;0.76717769318432072;0.90143378949157682;1.2466637514245211;1.5535348286982493;1.6046800082438708;2.3910371437577993;2.9536341187596347;0.45391346846738972;0.50505864801301115;-0.47948605824020041;-1.0484761806852383;-1.227484309094913;-1.2402706039813185;-1.6302525980166815;-1.5471416812550467;-1.4704239119366147;-1.2402706039813185;-1.0037241485828197;-1.0932282127876569;-1.0420830332420357;-1.0804419179012517;-0.87586119971876608;0.1150766539776481;0.71603251363869935;0.4475203210241871;0.77357084062752335;1.2914157835269398;2.1033455088136792;1.8540127585287749;1.368133552845372;0.92700637926438745;0.62013530199065925;0.58816956477464588;0.48587920568340309;0.27490534005771494;0.31965737216013362;0.38358884659216036;0.65849418664987525;0.69045992386588861;0.55620382755863251;0.85028860994595545;0.60095585966105125;0.79914343040033409;0.83110916761634746;0.75439139829791535;0.66488733409307799;0.89504064204837419;1.2978089309701426;1.0484761806852383;1.0229035909124276;1.0548693281284409;1.2019117193221025;1.3617404054021691;1.3809198477317772;1.2914157835269398;1.5918937133574655;1.48321020682302;1.2466637514245211;1.3937061426181825;1.4576376170502092;1.48321020682302;1.5918937133574655;1.6750046301191002;1.5279622389254388;1.4768170593798173;1.5918937133574655;1.6494320403462894;1.4128855849477906;1.4768170593798173;1.521569091482236;1.6622183352326949;1.5663211235846548;1.5599279761414522;1.6174663031302761;1.4959965017094254;1.5918937133574655;1.521569091482236;1.5918937133574655;1.4640307644934121;1.6622183352326949;1.5599279761414522;1.4128855849477906;1.6494320403462894;1.521569091482236;1.444851322163804;1.6302525980166815;1.48321020682302;1.4640307644934121;1.6046800082438708;1.5791074184710601;1.5151759440390333;1.6046800082438708;1.5471416812550467
Gyro Z : 5.0378001852437055;5.0825522173461248;5.0378001852437055;5.0953385122325301;5.2104151662101783;5.0761590699029222;5.0633727750165169;5.0441933326869082;5.1528768392213538;5.0889453647893275;5.0761590699029222;5.0186207429140977;5.2295946085397862;5.197628871323773;5.2359877559829888;5.2423809034261915;5.2168083136533809;5.1848425764373669;5.1912357238805704;5.3190986727446239;5.2487740508693941;5.2871329355286099;5.0953385122325301;5.3318849676310291;5.2040220187669757;5.2551671983125967;5.3574575574038397;5.4917136537110958;5.5556451281431221;5.7026875193367834;5.709080666779986;6.0990626608153491;6.5146172446235235;6.9109923861020892;6.9685307130909129;7.3968715917854917;7.4991619508767347;7.2817949378078435;6.6233007511579682;5.7410464039960001;4.6861770758675592;3.9957171520016703;3.0687107727372829;2.4230028809738129;1.5855005659142627;0.88864749460517145;0.42834087869457904;0.36440940426255231;-0.09589721164804009;-0.56899012244503788;-0.88864749460517145;-1.0165104434692249;-1.4576376170502092;-1.8284401687559644;-1.6877909250055054;-1.3937061426181825;-1.4640307644934121;-1.5663211235846548;-1.0612624755716435;-0.26851219261451226;1.7389361045511269;5.1400905443349485;5.5940040128023387;2.7170876633611356;2.7170876633611356;1.7772949892103429;1.6813977775623028;1.1635528346628863;1.3042020784133452;0.77357084062752335;0.012786294886405345;-0.94618582159399556;-1.2530568988677238;-0.85028860994595545;-0.37080255170575499;-0.50505864801301115;-1.7133635147783162;-1.9371236752904097;-1.6622183352326949;-0.88225434716196882;-1.8412264636423696;-2.2631741948937458;-2.5764384196106769;-2.1353112460296928;-0.68406677642268598;-0.61374215454745651;-1.6622183352326949;-1.4959965017094254;-0.25572589772810689;0.36440940426255231;0.15982868608006681;-0.02557258977281069;0.083110916761634748;-0.0063931474432026725;0.09589721164804009;-0.26211904517130957;-0.24933275028490423;-0.44112717358098441;-0.51784494289941652;-0.28769163494412026;-0.17261498096647215;-0.2301533079552962;0.14064924375045879;0.63931474432026725;1.1955185718788996;1.9818757073928284;2.5700452721674742;2.6851219261451225;3.7208118119439555;4.2770156395025882;4.5902798642195188;4.4112717358098443;5.0250138903573003;5.0633727750165169;5.267953493199002;5.4981068011542984;5.5364656858135142;5.45335476905188;5.4661410639382852;5.5940040128023387;5.5428588332567168;5.4405684741654738;5.5364656858135142;5.4341753267222712;5.3894232946198528;5.3894232946198528;5.267953493199002;5.1400905443349485;5.1400905443349485;5.0761590699029222;5.1017316596757327;5.0633727750165169;5.114517954562138;5.2232014610965836;5.2295946085397862;5.2040220187669757;5.0953385122325301;5.2168083136533809;5.3254918201878265;5.3063123778582177;5.2168083136533809;5.2871329355286099;5.2871329355286099;5.3254918201878265;5.3318849676310291;5.3638507048470423;5.267953493199002;5.197628871323773;5.3254918201878265;5.1528768392213538
COMMAND 1 SAMPLE 6
Accel X : -0.90651578000925592;-0.79534609051305682;-0.92672845082674671;-0.94694112164423749;-1.0581108111404365;-1.1389614944103996;-0.84587776755678368;-0.79534609051305682;-0.99747279868796435;-0.97726012787047356;-0.94694112164423749;-1.1187488235929091;-0.87619677378301974;-0.97726012787047356;-1.0176854695054551;-0.92672845082674671;-1.0277918049142005;-1.0378981403229459;-1.1591741652278904;-1.3511945379940524;-1.3006628609503257;-1.0277918049142005;-0.96715379246172817;-1.0378981403229459;-1.2097058422716174;-1.1793868360453812;-1.2299185130891079;-1.0682171465491819;-0.9166221154180012;-0.97726012787047356;-1.0884298173666729;-0.85598410296552896;-0.94694112164423749;-1.1894931714541264;-0.80545242592180211;-1.0075791340967097;-0.99747279868796435;-1.5128959045339787;-1.7049162773001409;-1.5331085753514693;-1.2602375193153441;-0.31024199089327864;0.59932819589380537;1.1450703079660558;2.8328283212265339;6.2386633539737257;8.9370549081087418;10.715769940047927;12.706718015570766;12.666292673935786;12.393421617899662;11.746616151739957;9.2907766474148303;6.1375999998862731;4.5711180115307393;2.7620839733653164;0.99347527683487513;0.013160742186573465;-1.4219388858552702;-2.0990633582412106;-2.8065068368533868;-4.8783055956461894;-6.9399980190302468;-7.9708442307222755;-10.406471064229912;-14.216559513326919;-17.996328956197686;-19.259620882290864;-19.259620882290864;-19.239408211473371;-19.229301876064628;-19.209089205247135;-19.138344857385917;-15.41921342696762;-14.054858146786993;-11.72029466736681;-9.921366964610133;-8.4054166532983263;-5.4442603785359305;-2.4527850975472987;0.4578395001713701;2.3881495632417371;1.6503870784033248;1.0743259601048381;1.9838961468919223;3.8737808683273078;4.2982469554946139;5.6120705586315127;10.159921492566934;12.85831304670195;11.504064101930068;7.5828059633368614;11.857785841236156;16.537019135485266;18.841263608679213;17.456695657681095;17.739673049125965;16.547125470894013;16.082234042091724;17.97211876352711;14.242880997700066;2.7519776379565712;5.2179234776904435;11.514170437338812;13.959903606255194;11.463638760295087;6.0769619874338003;3.6211224831086732;3.3785704332987843;1.6402807429945794;-2.3820407496860811;-4.403307831435157;-3.908097396406633;-1.5432149107602149;1.0743259601048381;0.69028521457251379;-1.1288551590016542;-1.4522578920815064;-1.846404973022576;-0.99747279868796435;0.15464943790900876;0.29613813363144403;-0.68417640101685762;-1.0378981403229459;-0.70438907183434829;0.12433043168277262;-0.12832795353586182;-0.29002932007578791;-0.61343205315563998;-0.26981664925829713;-0.25971031384955173;-0.098008947309625685;-0.047477270265898805;-0.57300671152065841;-0.37088000334575089;-0.54268770529442223;-0.25971031384955173;-0.61343205315563998;-0.96715379246172817;-0.71449540724309379;-0.67407006560811222;-0.43151801579822313;-0.46183702202445931;-0.65385739479062155;-0.90651578000925592;-0.69428273642560301;-0.35066733252826016;-0.37088000334575089;-0.49215602825069543;-0.57300671152065841
Accel Y : 0.42724607698893047;0.17219503590810603;0.12118482769194117;0.43744811863216343;0.33542770219983364;0.12118482769194117;0.55987261835095914;0.44765016027539639;0.15179095262164008;0.27421545234043576;0.35583178548629962;0.26401341069720285;0.38643791041599856;0.25381136905396984;0.22320524412427092;0.33542770219983364;0.22320524412427092;0.49866036849156131;0.31502361891336772;0.31502361891336772;0.13138686933517416;0.39663995205923153;0.20280116083780497;0.44765016027539639;0.41704403534569745;0.34562974384306661;0.38643791041599856;0.23340728576750391;0.39663995205923153;0.37623586877276555;0.46805424356186237;0.41704403534569745;0.35583178548629962;0.37623586877276555;0.62108486821035702;0.54967057670772612;0.51906445177802718;0.64148895149682295;0.89653999257764738;0.77411549285885162;1.059772658869375;1.0699747005126079;1.1311869503720058;1.457652282955461;1.8147237404686152;1.5086624911716258;1.0291665339396761;0.75371140957238569;0.63128690985358993;0.37623586877276555;0.41704403534569745;0.51906445177802718;0.049770536189310328;-0.1950784632482811;-0.29709887968061083;-0.43992746268587252;-0.7051805454099298;-0.84800912841519149;-1.3887173355065392;-1.2560907941445105;-0.88881729498812345;-1.1234642527824819;-1.2356867108580447;-0.72558462869639584;-0.082856005172718364;-0.072653963529485388;0.37623586877276555;1.5698747410310239;2.5288666554949235;3.4674544866723571;1.9371482401874109;0.85573182600471542;0.81492365943178358;-0.1440682550321162;-0.042047838599786447;0.16199299426487307;-0.49093767090203738;-0.6949785037666969;-0.82760504512872557;-0.35831112954000871;0.70270120135622072;0.98835836736674409;0.73330732628591977;0.41704403534569745;1.7025012823930525;3.3348279453103284;3.6000810280343858;3.8857381940449089;4.5692749841415186;3.2124034455915327;1.9575523234738768;-1.511141835225335;-1.3479091689336073;-0.68477646212346388;-1.9702337091708189;-1.3887173355065392;-1.2968989607174424;-1.2152826275715787;-0.86841321170165753;-0.91942341991782239;-0.95002954484752133;-0.75619075362609478;1.1719951169449376;0.24360932741073688;-0.35831112954000871;-0.52154379583173627;-0.82760504512872557;-0.50113971254527034;-0.011441713670087523;0.23340728576750391;0.26401341069720285;0.20280116083780497;0.74350936792915268;0.59047874328065808;0.66189303478328898;0.13138686933517416;0.090578702762242239;0.58027670163742517;0.41704403534569745;0.75371140957238569;0.78431753450208452;0.36603382712953259;0.70270120135622072;0.66189303478328898;0.72310528464268664;0.66189303478328898;0.65169099314005585;0.54967057670772612;0.25381136905396984;0.65169099314005585;0.71290324299945373;0.38643791041599856;0.63128690985358993;0.34562974384306661;0.34562974384306661;0.44765016027539639;0.54967057670772612;0.29461953562690174;0.12118482769194117;0.14158891097840712;0.29461953562690174;0.35583178548629962;0.28441749398366878;0.22320524412427092;0.16199299426487307;0.21300320248103796;0.34562974384306661;0.41704403534569745;0.18239707755133902;0.46805424356186237
Accel Z : 9.3582499907117533;9.6190608892894591;9.5789361356621203;9.548842570441618;9.5889673240689568;9.4485306863732674;9.5388113820347815;9.3783123675254245;9.4585618747801021;9.4084059327459286;9.4084059327459286;9.3983747443390921;9.3883435559322574;9.4084059327459286;9.3983747443390921;9.6190608892894591;9.3582499907117533;9.368281179118588;9.5087178168142756;9.368281179118588;9.649154454509965;9.4084059327459286;9.3783123675254245;9.368281179118588;9.488655440000608;9.278000483457074;9.5087178168142756;9.6591856429168015;9.5187490052211121;9.4384994979664327;9.4786242515937733;9.6290920776962956;9.5889673240689568;9.5588737588484509;9.4485306863732674;10.000246048749187;10.090526744410701;10.431587150243086;10.943177758991665;11.394581237299235;12.447856020016898;12.879197121510799;14.173220425992499;14.173220425992499;13.491099614327727;12.748791672221945;11.896140657640979;10.080495556003864;9.0171895848793682;6.9206712078508765;5.5062736424871579;4.3526869757011468;4.0216577582755955;2.3665116711478396;1.6141725406352236;1.2430185695823328;0.12955665642366071;-0.38203395232491832;-0.8334374306324881;-1.2246537784990486;-0.86353099585299276;-1.7262131988407927;-2.7895191699652906;-2.4685211409465744;-1.8265250829091415;-0.57262653205478109;1.5138606565668746;5.1852756134684421;7.6328855847361536;5.7771157294717002;2.9984765407784373;3.5401607147475214;3.0686948596262815;3.9715018162414211;3.20913149732197;1.9050770044334353;-0.18141018418822069;-1.7262131988407927;-1.0741859523965254;0.17971259845783513;0.43049230862870719;-0.59268890886845094;-2.7694567931516207;-3.431515228002723;-1.96696172060483;-0.45225227117276257;-0.87356218425982768;-1.5657141843314346;-0.6227824740889556;0.22986854049200955;-0.7832814885983137;-2.8296439235926298;-0.19144137259505556;0.96214529419095607;1.222956192768663;0.94208291737728633;1.2129250043618283;0.59099132313806535;0.89192697534311183;2.3163557291136656;4.2122503380054583;4.7940592656018817;4.9144335264838999;4.7940592656018817;5.3257122511641306;5.155182048247938;5.3658370047914694;5.6467102801828464;6.0981137584904159;7.4021682513789511;8.2247257007394126;8.5657861065717977;9.6792480197304691;10.361368831395241;10.100557932817535;10.501805469090931;10.381431208208912;10.050401990783362;10.381431208208912;10.251025758920058;10.531899034311435;10.401493585022582;10.01027723715602;9.7996222806124891;9.8598094110534973;10.060433179190197;9.7494663385783138;9.3783123675254245;9.4084059327459286;9.3181252370844145;9.3181252370844145;9.3181252370844145;9.4384994979664327;9.2980628602707451;9.2378757298297351;9.4485306863732674;9.4084059327459286;9.5187490052211121;9.3181252370844145;9.3783123675254245;9.5388113820347815;9.5588737588484509;9.4786242515937733;9.267969295050241;9.2880316718639087;9.488655440000608;9.3983747443390921;9.6892792081373038;9.8096534690193238;9.8096534690193238
Gyro X : -0.057538326988824051;0.012786294886405345;-0.070324621875229393;-0.083110916761634748;-0.15343553863686413;-0.20458071818248552;-0.019179442329608016;0.012786294886405345;-0.1150766539776481;-0.10229035909124276;-0.083110916761634748;-0.19179442329608018;-0.038358884659216032;-0.10229035909124276;-0.12786294886405344;-0.070324621875229393;-0.13425609630725613;-0.14064924375045879;-0.21736701306889086;-0.33883681448974162;-0.30687107727372825;-0.13425609630725613;-0.09589721164804009;-0.14064924375045879;-0.24933275028490423;-0.2301533079552962;-0.26211904517130957;-0.15982868608006681;-0.063931474432026722;-0.10229035909124276;-0.17261498096647215;-0.02557258977281069;-0.083110916761634748;-0.23654645539849889;0.0063931474432026725;-0.12146980142085077;-0.1150766539776481;-0.44112717358098441;-0.56259697500183514;-0.45391346846738972;-0.28129848750091757;0.31965737216013362;0.89504064204837419;1.2402706039813185;2.3079262269961647;4.4624169153554654;6.1693872826905789;7.2945812326942496;8.5540312790051765;8.5284586892323642;8.3558437082658923;7.9466822719009222;6.3931474432026727;4.3984854409234391;3.4075475872270244;2.2631741948937458;1.1443733923332784;0.52423809034261915;-0.38358884659216036;-0.81192972528673935;-1.2594500463109264;-2.5700452721674742;-3.8742473505808195;-4.5263483897874917;-6.0670969235993359;-8.4773135096867431;-10.868350653444542;-11.667494083844877;-11.667494083844877;-11.654707788958472;-11.648314641515269;-11.635528346628863;-11.590776314526446;-9.2380980554278622;-8.3750231505955011;-6.898206091215684;-5.760225846325608;-4.8012537298452074;-2.9280615289868241;-1.035689885798833;0.80553657784353672;2.0266277394952472;1.5599279761414522;1.1955185718788996;1.7709018417671403;2.9664204136460399;3.2349326062605521;4.0660417738768997;6.9429581233181024;8.649928490653215;7.7932467332640574;5.3127055253014204;8.0170068937761521;10.977034159978988;12.434671777029198;11.558810577310432;11.737818705720107;10.983427307422192;10.689342525034869;11.884861096913768;9.5257896903719814;2.2567810474505432;3.8167090235919954;7.79963988070726;9.3467815619623078;7.7676741434912469;4.3601265562642224;2.8065917275659733;2.6531561889291089;1.5535348286982493;-0.99093785369641418;-2.2695673423369489;-1.9563031176200179;-0.46030661591059241;1.1955185718788996;0.95257896903719819;-0.19818757073928284;-0.40276828892176836;-0.65210103920667262;-0.1150766539776481;0.61374215454745651;0.70324621875229398;0.083110916761634748;-0.14064924375045879;0.070324621875229393;0.59456271221784851;0.43473402613778173;0.33244366704653899;0.12786294886405344;0.34522996193294431;0.35162310937614699;0.45391346846738972;0.48587920568340309;0.15343553863686413;0.28129848750091757;0.17261498096647215;0.35162310937614699;0.12786294886405344;-0.09589721164804009;0.063931474432026722;0.089504064204837419;0.24293960284170155;0.22376016051209355;0.10229035909124276;-0.057538326988824051;0.076717769318432064;0.29408478238732294;0.28129848750091757;0.20458071818248552;0.15343553863686413
Gyro Y : 1.4640307644934121;1.3042020784133452;1.2722363411973319;1.4704239119366147;1.406492437504588;1.2722363411973319;1.5471416812550467;1.4768170593798173;1.2914157835269398;1.368133552845372;1.4192787323909932;1.3617404054021691;1.4384581747206013;1.3553472579589665;1.3361678156293586;1.406492437504588;1.3361678156293586;1.5087827965958307;1.3937061426181825;1.3937061426181825;1.2786294886405345;1.444851322163804;1.3233815207429531;1.4768170593798173;1.4576376170502092;1.4128855849477906;1.4384581747206013;1.3425609630725612;1.444851322163804;1.4320650272773987;1.4896033542662226;1.4576376170502092;1.4192787323909932;1.4320650272773987;1.5855005659142627;1.5407485338118441;1.521569091482236;1.5982868608006682;1.758115546880735;1.6813977775623028;1.8604059059719777;1.8667990534151804;1.9051579380743964;2.1097386562568818;2.3334988167689756;2.1417043934728954;1.8412264636423696;1.6686114826758975;1.5918937133574655;1.4320650272773987;1.4576376170502092;1.521569091482236;1.227484309094913;1.074048770458049;1.0101172960260223;0.92061323182118482;0.75439139829791535;0.66488733409307799;0.32605051960333631;0.40916143636497104;0.63931474432026725;0.49227235312660578;0.42194773125137636;0.74160510341150998;1.1443733923332784;1.150766539776481;1.4320650272773987;2.1800632781321112;2.7810191377931623;3.3691887025678082;2.4102165860874076;1.7325429571079243;1.7069703673351135;1.1060145076740624;1.1699459821060891;1.2978089309701426;0.88864749460517145;0.76078454574111798;0.67767362897948324;0.97175841136680619;1.6366457454598842;1.8156538738695589;1.6558251877894921;1.4576376170502092;2.2631741948937458;3.2860777858061736;3.4522996193294433;3.6313077477391178;4.0596486264336971;3.2093600164877416;2.4230028809738129;0.24933275028490423;0.35162310937614699;0.76717769318432072;-0.038358884659216032;0.32605051960333631;0.38358884659216036;0.43473402613778173;0.65210103920667262;0.62013530199065925;0.60095585966105125;0.72242566108190198;1.9307305278472071;1.3489541105157639;0.97175841136680619;0.86946805227556345;0.67767362897948324;0.88225434716196882;1.189125424435697;1.3425609630725612;1.3617404054021691;1.3233815207429531;1.6622183352326949;1.5663211235846548;1.6110731556870734;1.2786294886405345;1.2530568988677238;1.5599279761414522;1.4576376170502092;1.6686114826758975;1.6877909250055054;1.4256718798341959;1.6366457454598842;1.6110731556870734;1.6494320403462894;1.6110731556870734;1.6046800082438708;1.5407485338118441;1.3553472579589665;1.6046800082438708;1.6430388929030868;1.4384581747206013;1.5918937133574655;1.4128855849477906;1.4128855849477906;1.4768170593798173;1.5407485338118441;1.3809198477317772;1.2722363411973319;1.2850226360837371;1.3809198477317772;1.4192787323909932;1.3745267002885746;1.3361678156293586;1.2978089309701426;1.329774668186156;1.4128855849477906;1.4576376170502092;1.3105952258565479;1.4896033542662226
Gyro Z : 5.1784494289941643;5.3446712625174344;5.3190986727446239;5.2999192304150151;5.3254918201878265;5.2359877559829888;5.2935260829718125;5.1912357238805704;5.2423809034261915;5.2104151662101783;5.2104151662101783;5.2040220187669757;5.197628871323773;5.2104151662101783;5.2040220187669757;5.3446712625174344;5.1784494289941643;5.1848425764373669;5.2743466406422046;5.1848425764373669;5.3638507048470423;5.2104151662101783;5.1912357238805704;5.1848425764373669;5.2615603457557993;5.1273042494485432;5.2743466406422046;5.3702438522902449;5.2807397880854072;5.2295946085397862;5.2551671983125967;5.351064409960637;5.3254918201878265;5.3063123778582177;5.2359877559829888;5.5876108653591361;5.6451491923479598;5.8625162054168509;6.1885667250201868;6.4762583599643069;7.1475388415005874;7.4224441815583031;8.2471602017314467;8.2471602017314467;7.8124261755936661;7.339333264796668;6.795915732124441;5.6387560449047571;4.961082415925274;3.6249146002959152;2.7234808108043382;1.9882688548360312;1.7772949892103429;0.72242566108190198;0.24293960284170155;0.0063931474432026725;-0.70324621875229398;-1.0292967383556302;-1.3169883732997505;-1.5663211235846548;-1.3361678156293586;-1.8859784957447883;-2.5636521247242716;-2.3590714065417862;-1.949909970176815;-1.150766539776481;0.17900812840967484;2.5189000926218528;4.0788280687633049;2.8960957917708106;1.1251939500036703;1.4704239119366147;1.1699459821060891;1.7453292519943295;1.2594500463109264;0.42834087869457904;-0.90143378949157682;-1.8859784957447883;-1.4704239119366147;-0.67128048153628062;-0.51145179545621378;-1.1635528346628863;-2.5508658298378664;-2.9728135610892426;-2.0394140343816525;-1.074048770458049;-1.3425609630725612;-1.7836881366535455;-1.1827322769924944;-0.63931474432026725;-1.2850226360837371;-2.5892247144970821;-0.90782693693477945;-0.17261498096647215;-0.0063931474432026725;-0.1854012758528775;-0.012786294886405345;-0.40916143636497104;-0.21736701306889086;0.69045992386588861;1.8987647906311937;2.2695673423369489;2.3462851116553809;2.2695673423369489;2.6084041568266905;2.4997206502922449;2.633976746599501;2.8129848750091759;3.100676509953296;3.9317856775696436;4.4560237679122627;4.6733907809811539;5.3830301471766502;5.8177641733144316;5.6515423397911624;5.9072682375192693;5.8305504682008369;5.6195766025751492;5.8305504682008369;5.7474395514392027;5.9264476798488772;5.843336763087243;5.5940040128023387;5.4597479164950826;5.4981068011542984;5.6259697500183519;5.4277821792790686;5.1912357238805704;5.2104151662101783;5.1528768392213538;5.1528768392213538;5.1528768392213538;5.2295946085397862;5.1400905443349485;5.1017316596757327;5.2359877559829888;5.2104151662101783;5.2807397880854072;5.1528768392213538;5.1912357238805704;5.2935260829718125;5.3063123778582177;5.2551671983125967;5.1209111020053406;5.1336973968917459;5.2615603457557993;5.2040220187669757;5.3894232946198528;5.4661410639382852;5.4661410639382852
COMMAND 1 SAMPLE 7
Accel X : -0.89640944460051053;-0.79534609051305682;-0.82566509673929289;-0.94694112164423749;-1.0176854695054551;-0.98736646327921895;-0.96715379246172817;-1.0884298173666729;-0.94694112164423749;-1.0176854695054551;-0.85598410296552896;-0.99747279868796435;-1.2198121776803625;-1.149067829819145;-1.1288551590016542;-0.86609043837427446;-0.80545242592180211;-1.0378981403229459;-1.0480044757316913;-0.81555876133054761;-0.90651578000925592;-0.79534609051305682;-0.45173068661571392;-0.87619677378301974;-0.74481441346932986;-1.0884298173666729;-0.9166221154180012;-0.93683478623549199;-0.89640944460051053;-0.81555876133054761;-0.99747279868796435;-1.1187488235929091;-1.0075791340967097;-0.97726012787047356;-1.4320452212640156;-1.1894931714541264;-1.0176854695054551;-0.73470807806058458;-0.82566509673929289;-0.57300671152065841;-0.61343205315563998;-0.52247503447693155;-0.037370934857153426;0.86209291652118525;1.5088983826808893;2.0445341593443942;2.2163418612930657;2.9035726690877515;4.9450524216543172;7.2998285718919913;9.2604576411885944;11.716297145513721;13.83862758135025;14.222668326882575;13.100865096511837;11.150342362623979;9.2604576411885944;8.1184417400003657;5.4099438504566049;3.186550060532622;1.6604934138120699;-0.22939130762331561;-1.9777873333362659;-3.5543756571005449;-5.2118146641347867;-7.6676541684599133;-10.871362493032198;-15.904317526587397;-19.259620882290864;-19.259620882290864;-19.249514546882118;-19.229301876064628;-19.229301876064628;-17.248460135950531;-12.66018386038013;-12.387312804344004;-12.043697400446662;-10.386258393412421;-9.4362628649903559;-8.6479687031082157;-5.8384074594770006;-4.433626837661393;-3.1299095699332393;-1.2299185130891079;1.0844322955135834;1.4280476994109264;1.872726457395723;3.641335153926164;4.0152695640497429;4.6620750302094471;7.7344009944680421;14.73809143272859;18.335946838241945;9.7051363991733908;2.7216586317303348;13.606181866949106;19.00296497521914;17.951906092709617;15.546598265428219;15.071600501217187;15.223195532348367;13.282779133869253;10.543962238099256;9.3514146598673022;10.220559505019406;10.463111554829293;10.129602486340696;9.9982201260270056;9.1290752808749041;8.9370549081087418;8.1285480754091122;6.6227040995060502;5.2482424839166786;2.7620839733653164;1.1854956496010374;-0.55279404070316773;-1.3410882025853073;-1.3815135442202888;-0.239497643032061;0.2759254628139533;0.34666981067517094;0.033373413004064219;-0.16875329517084334;-0.0070519286309172913;-0.70438907183434829;-1.149067829819145;-1.411832550446525;-1.4320452212640156;-0.69428273642560301;0.053586083821554976;-0.53258136988567695;-1.1894931714541264;-1.4017262150377794;-1.5027895691252333;-1.0075791340967097;-1.149067829819145;-1.4724705628989971;-1.4219388858552702;-1.2097058422716174;-1.0783234819579275;-1.2400248484978533;-1.4522578920815064;-1.149067829819145;-1.1591741652278904;-1.4017262150377794;-1.3309818671765619;-1.2703438547240895;-1.2905565255415803;-1.1793868360453812;-1.1187488235929091
Accel Y : -0.082856005172718364;-0.09305804681595134;-0.0012396720268545484;-0.082856005172718364;-0.062451921886252405;0.03956849454607736;-0.15427029667534919;0.090578702762242239;-0.31750296296707681;-0.1440682550321162;-0.11346213010241728;-0.12366417174565025;-0.12366417174565025;-0.1440682550321162;-0.18487642160504814;-0.13386621338888324;-0.05224988024301943;-0.20528050489151409;0.059972577832543304;-0.011441713670087523;-0.12366417174565025;-0.082856005172718364;-0.12366417174565025;-0.16447233831858216;-0.1032600884591843;-0.13386621338888324;-0.042047838599786447;0.0089623696163784287;0.059972577832543304;0.080376661119009249;-0.13386621338888324;-0.0012396720268545484;0.019164411259611401;-0.05224988024301943;0.049770536189310328;-0.011441713670087523;-0.40932133775617363;-0.41952337939940659;-0.16447233831858216;-0.32770500461030977;-0.1440682550321162;-0.072653963529485388;0.049770536189310328;-0.20528050489151409;-0.4603315459723385;0.0089623696163784287;-0.30730092132384385;-0.26649275475091194;-0.48073562925880436;-0.81740300348549266;-1.3785152938633063;-0.89901933663135647;-1.3377071272903744;-2.357911291613672;-2.8884174570617867;-2.6333664159809622;-2.4905378329757006;-2.5823562077647972;-2.9598317485644174;-3.2760950395046402;-3.602560372088095;-3.5617522055151634;-2.7251847907700593;-1.3071010023606753;-0.80720096184225965;0.5292664934212602;1.3964400330960631;2.4574523639922923;1.7535114906092173;1.7127033240362854;3.0491707792998048;-0.41952337939940659;-0.082856005172718364;-0.58275604569113426;-2.0416480006734496;-2.2354867918948762;-2.5619521244783314;-2.9904378734941166;-2.9802358318508833;-3.0414480817102816;-2.8170031655591559;-3.0312460400670487;-3.4291256641531342;-2.3783153749001378;-1.3581112105768405;-1.3989193771497723;-0.51134175418850336;1.7841176155389162;2.2228054061979345;1.8657339486847802;1.6310869908904215;3.5388687781749879;3.1613932373753681;0.41704403534569745;-2.9598317485644174;-1.7049806264467615;-1.1132622111392489;-2.8680133737753208;-1.3683132522200734;-1.3989193771497723;-1.4091214187930052;-1.08265608620955;-0.64396829555053192;-0.4603315459723385;-0.68477646212346388;-0.68477646212346388;-0.57255400404790124;-1.0214438363501521;-0.9296254615610553;-0.84800912841519149;-0.73578667033962886;-0.67457442048023097;-0.89901933663135647;-0.6949785037666969;-0.86841321170165753;-0.73578667033962886;-0.65417033719376505;-0.62356421226406611;-0.86841321170165753;-0.84800912841519149;-0.67457442048023097;-0.52154379583173627;-0.58275604569113426;-0.56235196240466823;-0.65417033719376505;-0.45012950432910553;-0.60316012897760019;-0.6949785037666969;-0.65417033719376505;-0.68477646212346388;-0.56235196240466823;-0.57255400404790124;-0.59295808733436717;-0.75619075362609478;-0.36851317118324167;-0.39911929611294061;-0.52154379583173627;-0.65417033719376505;-0.71538258705316293;-0.55214992076143521;-0.42972542104263955;-0.5419478791182023;-0.64396829555053192;-0.49093767090203738;-0.63376625390729902;-0.35831112954000871;-0.67457442048023097;-0.62356421226406611;-0.90922137827458938;-0.48073562925880436
Accel Z : 9.4986866284074427;9.5287801936279468;9.6692168313236362;9.428468309559598;9.267969295050241;9.3582499907117533;9.5689049472552856;9.4585618747801021;9.4384994979664327;9.7394351501714791;9.488655440000608;9.649154454509965;9.3582499907117533;9.3582499907117533;9.4084059327459286;9.3983747443390921;9.4184371211527633;9.5287801936279468;9.6391232661031303;9.5388113820347815;9.5689049472552856;9.488655440000608;9.428468309559598;9.649154454509965;9.6591856429168015;9.6290920776962956;9.5989985124757915;9.5689049472552856;9.6391232661031303;9.709341584950975;9.548842570441618;9.6993103965441403;9.7394351501714791;9.5789361356621203;9.3983747443390921;9.8598094110534973;9.7895910922056526;9.9199965414945073;10.040370802376525;10.180807440072213;10.240994570513223;10.782678744482308;10.612148541566114;11.103676773501023;11.093645585094189;11.113707961907858;10.5218678459046;10.180807440072213;9.217813353016064;8.1745697587052373;7.1413573528012453;5.5363672077076629;4.4630300481763303;3.4599112074928424;3.0686948596262815;2.4266988015888491;0.58096013473123043;1.1025819318866443;0.49067943906971651;-0.5224705900206067;-0.66290722771629518;-0.60272009727528586;-1.6058389379587741;-1.9368681553843252;-1.0340611987691859;-0.92371812629400207;0.089431902796321183;2.8078839610485749;4.8341840192292214;4.9545582801112396;1.1427066855139838;1.3032057000233421;0.99223885941146073;1.6242037290420583;2.1458255261974726;1.3834552072780211;0.84177103330893743;0.6712408303927444;0.38033636659453279;0.40039874340820253;0.12955665642366071;-0.30178444507023927;-1.4854646770767554;-1.4854646770767554;-2.2378038075893718;-2.137491923521023;-1.375121604601572;-0.57262653205478109;-1.6058389379587741;-3.0001741265088229;-1.2647785321263882;2.2762309754863255;4.8141216424155511;-1.7362443872476276;-3.8929498947171277;1.9953577000949492;2.8781022798964191;3.20913149732197;2.6674473233528864;2.0555448305359585;1.6041413522283885;2.7376656422007306;3.6103790335953652;4.4529988597694956;4.8943711496702305;5.8272716715058746;5.2655251207231215;4.9445270917044049;5.1652132366547718;5.5163048308939935;6.0379266280494077;6.1984256425587656;6.7601721933415186;7.1513885412080791;8.1645385702984026;8.6761291790469812;8.8667217587768441;9.207782164609231;9.1977509762023963;9.5588737588484509;9.9500901067150131;9.5588737588484509;9.5789361356621203;9.4485306863732674;9.368281179118588;9.488655440000608;9.5889673240689568;9.428468309559598;9.3181252370844145;10.080495556003864;9.4485306863732674;9.4585618747801021;9.2980628602707451;9.3281564254912492;9.4184371211527633;9.4986866284074427;9.4585618747801021;9.4485306863732674;9.4084059327459286;9.3883435559322574;9.428468309559598;9.3482188023049186;9.5087178168142756;9.4485306863732674;9.2880316718639087;9.3582499907117533;9.4485306863732674;9.3381876138980839;9.2980628602707451;9.368281179118588
Gyro X : -0.05114517954562138;0.012786294886405345;-0.0063931474432026725;-0.083110916761634748;-0.12786294886405344;-0.10868350653444543;-0.09589721164804009;-0.17261498096647215;-0.083110916761634748;-0.12786294886405344;-0.02557258977281069;-0.1150766539776481;-0.25572589772810689;-0.21097386562568818;-0.19818757073928284;-0.031965737216013361;0.0063931474432026725;-0.14064924375045879;-0.14704239119366147;0;-0.057538326988824051;0.012786294886405345;0.2301533079552962;-0.038358884659216032;0.04475203210241871;-0.17261498096647215;-0.063931474432026722;-0.076717769318432064;-0.05114517954562138;0;-0.1150766539776481;-0.19179442329608018;-0.12146980142085077;-0.10229035909124276;-0.38998199403536304;-0.23654645539849889;-0.12786294886405344;0.05114517954562138;-0.0063931474432026725;0.15343553863686413;0.12786294886405344;0.1854012758528775;0.49227235312660578;1.0612624755716435;1.4704239119366147;1.8092607264263563;1.9179442329608016;2.3526782590985835;3.6440940426255235;5.1336973968917459;6.3739680008730648;7.9275028295713135;9.2700637926438745;9.5130033954855762;8.8033640292900799;7.5694865727519645;6.3739680008730648;5.6515423397911624;3.9381788250128462;2.5316863875082585;1.5663211235846548;0.37080255170575499;-0.73521195596830735;-1.7325429571079243;-2.7810191377931623;-4.3345539664914119;-6.3611817059866587;-9.5449691327015902;-11.667494083844877;-11.667494083844877;-11.661100936401674;-11.648314641515269;-11.648314641515269;-10.395257742647546;-7.492768803433532;-7.3201538224670601;-7.102786809398169;-6.0543106287129307;-5.45335476905188;-4.9546892684820714;-3.177394279271728;-2.2887467846665568;-1.4640307644934121;-0.26211904517130957;1.2019117193221025;1.4192787323909932;1.7005772198919109;2.8193780224523786;3.0559244778508776;3.4650859142158486;5.4086027369494607;9.8390539150889129;12.115014404869065;6.6552664883739823;2.2376016051209353;9.1230214014502131;12.53696213612044;11.872074802027363;10.350505710545127;10.050027780714601;10.145924992362641;8.9184406832677272;7.185897726159804;6.4315063278618885;6.9813170079773181;7.1347525466141821;6.9237786809884945;6.8406677642268594;6.2908570841114297;6.1693872826905789;5.657935487234365;4.705356518197167;3.8358884659216033;2.2631741948937458;1.2658431937541292;0.1662218335232695;-0.33244366704653899;-0.35801625681934968;0.36440940426255231;0.69045992386588861;0.73521195596830735;0.53702438522902451;0.40916143636497104;0.51145179545621378;0.070324621875229393;-0.21097386562568818;-0.37719569914895767;-0.38998199403536304;0.076717769318432064;0.54981068011542988;0.17900812840967484;-0.23654645539849889;-0.37080255170575499;-0.43473402613778173;-0.12146980142085077;-0.21097386562568818;-0.41555458380817373;-0.38358884659216036;-0.24933275028490423;-0.1662218335232695;-0.26851219261451226;-0.40276828892176836;-0.21097386562568818;-0.21736701306889086;-0.37080255170575499;-0.32605051960333631;-0.28769163494412026;-0.30047792983052563;-0.2301533079552962;-0.19179442329608018
