COMMAND 1 SAMPLE 1
Accel X : 2816.00000000000;2806.00000000000;2816.00000000000;2821.00000000000;2806.00000000000;2805.00000000000;2820.00000000000;2788.00000000000;2797.00000000000;2794.00000000000;2789.00000000000;2820.00000000000;2800.00000000000;2799.00000000000;2805.00000000000;2806.00000000000;2815.00000000000;2828.00000000000;2835.00000000000;2807.00000000000;2807.00000000000;2833.00000000000;2795.00000000000;2806.00000000000;2829.00000000000;2812.00000000000;2799.00000000000;2814.00000000000;2834.00000000000;2811.00000000000;2803.00000000000;2801.00000000000;2823.00000000000;2816.00000000000;2825.00000000000;2831.00000000000;2821.00000000000;2825.00000000000;2827.00000000000;2802.00000000000;2813.00000000000;2815.00000000000;2796.00000000000;2783.00000000000;2794.00000000000;2772.00000000000;2807.00000000000;2786.00000000000;2784.00000000000;2784.00000000000;2754.00000000000;2779.00000000000;2767.00000000000;2784.00000000000;2739.00000000000;2735.00000000000;2730.00000000000;2728.00000000000;2688.00000000000;2703.00000000000;2778.00000000000;2826.00000000000;2901.00000000000;3024.00000000000;3027.00000000000;2828.00000000000;2767.00000000000;2789.00000000000;2873.00000000000;2800.00000000000;2726.00000000000;2739.00000000000;2654.00000000000;2605.00000000000;2619.00000000000;2673.00000000000;2627.00000000000;2585.00000000000;2627.00000000000;2654.00000000000;2691.00000000000;2755.00000000000;2809.00000000000;2727.00000000000;2763.00000000000;2796.00000000000;2853.00000000000;2861.00000000000;2841.00000000000;2835.00000000000;2844.00000000000;2813.00000000000;2770.00000000000;2762.00000000000;2759.00000000000;2742.00000000000;2787.00000000000;2735.00000000000;2604.00000000000;2575.00000000000;2669.00000000000;2674.00000000000;2704.00000000000;2729.00000000000;2830.00000000000;2862.00000000000;2843.00000000000;2838.00000000000;2858.00000000000;2832.00000000000;2888.00000000000;2927.00000000000;2884.00000000000;2857.00000000000;2849.00000000000;2824.00000000000;2765.00000000000;2772.00000000000;2789.00000000000;2816.00000000000;2819.00000000000;2799.00000000000;2766.00000000000;2786.00000000000;2821.00000000000;2832.00000000000;2802.00000000000;2838.00000000000;2806.00000000000;2823.00000000000;2814.00000000000;2838.00000000000;2838.00000000000;2812.00000000000;2815.00000000000;2817.00000000000;2848.00000000000;2814.00000000000;2791.00000000000;2792.00000000000;2772.00000000000;2761.00000000000;2773.00000000000;2749.00000000000;2764.00000000000;2765.00000000000;2799.00000000000;2785.00000000000;2797.00000000000;2809.00000000000
Accel Y : 1799.00000000000;1836.00000000000;1810.00000000000;1814.00000000000;1799.00000000000;1808.00000000000;1820.00000000000;1827.00000000000;1820.00000000000;1794.00000000000;1782.00000000000;1802.00000000000;1823.00000000000;1799.00000000000;1831.00000000000;1815.00000000000;1815.00000000000;1793.00000000000;1791.00000000000;1802.00000000000;1813.00000000000;1798.00000000000;1801.00000000000;1813.00000000000;1807.00000000000;1816.00000000000;1822.00000000000;1795.00000000000;1787.00000000000;1789.00000000000;1798.00000000000;1817.00000000000;1805.00000000000;1807.00000000000;1799.00000000000;1803.00000000000;1799.00000000000;1803.00000000000;1795.00000000000;1772.00000000000;1774.00000000000;1764.00000000000;1734.00000000000;1725.00000000000;1730.00000000000;1711.00000000000;1708.00000000000;1708.00000000000;1680.00000000000;1664.00000000000;1626.00000000000;1591.00000000000;1515.00000000000;1468.00000000000;1425.00000000000;1361.00000000000;1293.00000000000;1281.00000000000;1255.00000000000;1279.00000000000;1313.00000000000;1437.00000000000;1521.00000000000;1604.00000000000;1648.00000000000;1893.00000000000;2173.00000000000;2491.00000000000;2631.00000000000;2633.00000000000;2676.00000000000;2653.00000000000;2551.00000000000;2441.00000000000;2369.00000000000;2315.00000000000;2305.00000000000;2265.00000000000;2252.00000000000;2199.00000000000;2255.00000000000;2308.00000000000;2303.00000000000;2339.00000000000;2363.00000000000;2345.00000000000;2321.00000000000;2443.00000000000;2386.00000000000;2166.00000000000;2130.00000000000;2178.00000000000;2103.00000000000;1925.00000000000;1795.00000000000;1748.00000000000;1799.00000000000;1611.00000000000;1328.00000000000;1206.00000000000;1255.00000000000;1257.00000000000;1276.00000000000;1266.00000000000;1328.00000000000;1386.00000000000;1430.00000000000;1482.00000000000;1551.00000000000;1622.00000000000;1673.00000000000;1715.00000000000;1746.00000000000;1746.00000000000;1750.00000000000;1769.00000000000;1794.00000000000;1806.00000000000;1831.00000000000;1824.00000000000;1807.00000000000;1814.00000000000;1791.00000000000;1805.00000000000;1786.00000000000;1787.00000000000;1790.00000000000;1787.00000000000;1784.00000000000;1768.00000000000;1768.00000000000;1768.00000000000;1804.00000000000;1781.00000000000;1773.00000000000;1797.00000000000;1808.00000000000;1811.00000000000;1815.00000000000;1789.00000000000;1811.00000000000;1810.00000000000;1791.00000000000;1794.00000000000;1800.00000000000;1809.00000000000;1795.00000000000;1783.00000000000;1793.00000000000;1788.00000000000
Accel Z : 1958.00000000000;1962.00000000000;1984.00000000000;1959.00000000000;1960.00000000000;1953.00000000000;1973.00000000000;1960.00000000000;1954.00000000000;1962.00000000000;1968.00000000000;1963.00000000000;1955.00000000000;1965.00000000000;1989.00000000000;1953.00000000000;1970.00000000000;1934.00000000000;1959.00000000000;1962.00000000000;1967.00000000000;1967.00000000000;1959.00000000000;1952.00000000000;1958.00000000000;1985.00000000000;1975.00000000000;1963.00000000000;1947.00000000000;1944.00000000000;1949.00000000000;1974.00000000000;1936.00000000000;1941.00000000000;1947.00000000000;1959.00000000000;1964.00000000000;1927.00000000000;1970.00000000000;1985.00000000000;1950.00000000000;1959.00000000000;1942.00000000000;1949.00000000000;1955.00000000000;1966.00000000000;1972.00000000000;1987.00000000000;2013.00000000000;2012.00000000000;2049.00000000000;2082.00000000000;2123.00000000000;2173.00000000000;2178.00000000000;2243.00000000000;2220.00000000000;2237.00000000000;2196.00000000000;2186.00000000000;2155.00000000000;2093.00000000000;2049.00000000000;1985.00000000000;1877.00000000000;1782.00000000000;1814.00000000000;1901.00000000000;1900.00000000000;1800.00000000000;1812.00000000000;1923.00000000000;1893.00000000000;1907.00000000000;1971.00000000000;1979.00000000000;1991.00000000000;2004.00000000000;1996.00000000000;2000.00000000000;2016.00000000000;1997.00000000000;1995.00000000000;1997.00000000000;2014.00000000000;1987.00000000000;1957.00000000000;1920.00000000000;1897.00000000000;1867.00000000000;1919.00000000000;1996.00000000000;1955.00000000000;1874.00000000000;1778.00000000000;1886.00000000000;2038.00000000000;2049.00000000000;1909.00000000000;1923.00000000000;2175.00000000000;2229.00000000000;2108.00000000000;2051.00000000000;2096.00000000000;2109.00000000000;2125.00000000000;2102.00000000000;2057.00000000000;2039.00000000000;2009.00000000000;1990.00000000000;1962.00000000000;1929.00000000000;1944.00000000000;1944.00000000000;1934.00000000000;1921.00000000000;1916.00000000000;1924.00000000000;1920.00000000000;1958.00000000000;1963.00000000000;1972.00000000000;1951.00000000000;1960.00000000000;1981.00000000000;1981.00000000000;1967.00000000000;1992.00000000000;1991.00000000000;1995.00000000000;1980.00000000000;1972.00000000000;1981.00000000000;1977.00000000000;1987.00000000000;1966.00000000000;1987.00000000000;1970.00000000000;1954.00000000000;1971.00000000000;1981.00000000000;1970.00000000000;1970.00000000000;1987.00000000000;1970.00000000000;1969.00000000000;1975.00000000000;1980.00000000000
Gyro X : 2816.00000000000;2806.00000000000;2816.00000000000;2821.00000000000;2806.00000000000;2805.00000000000;2820.00000000000;2788.00000000000;2797.00000000000;2794.00000000000;2789.00000000000;2820.00000000000;2800.00000000000;2799.00000000000;2805.00000000000;2806.00000000000;2815.00000000000;2828.00000000000;2835.00000000000;2807.00000000000;2807.00000000000;2833.00000000000;2795.00000000000;2806.00000000000;2829.00000000000;2812.00000000000;2799.00000000000;2814.00000000000;2834.00000000000;2811.00000000000;2803.00000000000;2801.00000000000;2823.00000000000;2816.00000000000;2825.00000000000;2831.00000000000;2821.00000000000;2825.00000000000;2827.00000000000;2802.00000000000;2813.00000000000;2815.00000000000;2796.00000000000;2783.00000000000;2794.00000000000;2772.00000000000;2807.00000000000;2786.00000000000;2784.00000000000;2784.00000000000;2754.00000000000;2779.00000000000;2767.00000000000;2784.00000000000;2739.00000000000;2735.00000000000;2730.00000000000;2728.00000000000;2688.00000000000;2703.00000000000;2778.00000000000;2826.00000000000;2901.00000000000;3024.00000000000;3027.00000000000;2828.00000000000;2767.00000000000;2789.00000000000;2873.00000000000;2800.00000000000;2726.00000000000;2739.00000000000;2654.00000000000;2605.00000000000;2619.00000000000;2673.00000000000;2627.00000000000;2585.00000000000;2627.00000000000;2654.00000000000;2691.00000000000;2755.00000000000;2809.00000000000;2727.00000000000;2763.00000000000;2796.00000000000;2853.00000000000;2861.00000000000;2841.00000000000;2835.00000000000;2844.00000000000;2813.00000000000;2770.00000000000;2762.00000000000;2759.00000000000;2742.00000000000;2787.00000000000;2735.00000000000;2604.00000000000;2575.00000000000;2669.00000000000;2674.00000000000;2704.00000000000;2729.00000000000;2830.00000000000;2862.00000000000;2843.00000000000;2838.00000000000;2858.00000000000;2832.00000000000;2888.00000000000;2927.00000000000;2884.00000000000;2857.00000000000;2849.00000000000;2824.00000000000;2765.00000000000;2772.00000000000;2789.00000000000;2816.00000000000;2819.00000000000;2799.00000000000;2766.00000000000;2786.00000000000;2821.00000000000;2832.00000000000;2802.00000000000;2838.00000000000;2806.00000000000;2823.00000000000;2814.00000000000;2838.00000000000;2838.00000000000;2812.00000000000;2815.00000000000;2817.00000000000;2848.00000000000;2814.00000000000;2791.00000000000;2792.00000000000;2772.00000000000;2761.00000000000;2773.00000000000;2749.00000000000;2764.00000000000;2765.00000000000;2799.00000000000;2785.00000000000;2797.00000000000;2809.00000000000
Gyro Y : 1799.00000000000;1836.00000000000;1810.00000000000;1814.00000000000;1799.00000000000;1808.00000000000;1820.00000000000;1827.00000000000;1820.00000000000;1794.00000000000;1782.00000000000;1802.00000000000;1823.00000000000;1799.00000000000;1831.00000000000;1815.00000000000;1815.00000000000;1793.00000000000;1791.00000000000;1802.00000000000;1813.00000000000;1798.00000000000;1801.00000000000;1813.00000000000;1807.00000000000;1816.00000000000;1822.00000000000;1795.00000000000;1787.00000000000;1789.00000000000;1798.00000000000;1817.00000000000;1805.00000000000;1807.00000000000;1799.00000000000;1803.00000000000;1799.00000000000;1803.00000000000;1795.00000000000;1772.00000000000;1774.00000000000;1764.00000000000;1734.00000000000;1725.00000000000;1730.00000000000;1711.00000000000;1708.00000000000;1708.00000000000;1680.00000000000;1664.00000000000;1626.00000000000;1591.00000000000;1515.00000000000;1468.00000000000;1425.00000000000;1361.00000000000;1293.00000000000;1281.00000000000;1255.00000000000;1279.00000000000;1313.00000000000;1437.00000000000;1521.00000000000;1604.00000000000;1648.00000000000;1893.00000000000;2173.00000000000;2491.00000000000;2631.00000000000;2633.00000000000;2676.00000000000;2653.00000000000;2551.00000000000;2441.00000000000;2369.00000000000;2315.00000000000;2305.00000000000;2265.00000000000;2252.00000000000;2199.00000000000;2255.00000000000;2308.00000000000;2303.00000000000;2339.00000000000;2363.00000000000;2345.00000000000;2321.00000000000;2443.00000000000;2386.00000000000;2166.00000000000;2130.00000000000;2178.00000000000;2103.00000000000;1925.00000000000;1795.00000000000;1748.00000000000;1799.00000000000;1611.00000000000;1328.00000000000;1206.00000000000;1255.00000000000;1257.00000000000;1276.00000000000;1266.00000000000;1328.00000000000;1386.00000000000;1430.00000000000;1482.00000000000;1551.00000000000;1622.00000000000;1673.00000000000;1715.00000000000;1746.00000000000;1746.00000000000;1750.00000000000;1769.00000000000;1794.00000000000;1806.00000000000;1831.00000000000;1824.00000000000;1807.00000000000;1814.00000000000;1791.00000000000;1805.00000000000;1786.00000000000;1787.00000000000;1790.00000000000;1787.00000000000;1784.00000000000;1768.00000000000;1768.00000000000;1768.00000000000;1804.00000000000;1781.00000000000;1773.00000000000;1797.00000000000;1808.00000000000;1811.00000000000;1815.00000000000;1789.00000000000;1811.00000000000;1810.00000000000;1791.00000000000;1794.00000000000;1800.00000000000;1809.00000000000;1795.00000000000;1783.00000000000;1793.00000000000;1788.00000000000
Gyro Z : 1958.00000000000;1962.00000000000;1984.00000000000;1959.00000000000;1960.00000000000;1953.00000000000;1973.00000000000;1960.00000000000;1954.00000000000;1962.00000000000;1968.00000000000;1963.00000000000;1955.00000000000;1965.00000000000;1989.00000000000;1953.00000000000;1970.00000000000;1934.00000000000;1959.00000000000;1962.00000000000;1967.00000000000;1967.00000000000;1959.00000000000;1952.00000000000;1958.00000000000;1985.00000000000;1975.00000000000;1963.00000000000;1947.00000000000;1944.00000000000;1949.00000000000;1974.00000000000;1936.00000000000;1941.00000000000;1947.00000000000;1959.00000000000;1964.00000000000;1927.00000000000;1970.00000000000;1985.00000000000;1950.00000000000;1959.00000000000;1942.00000000000;1949.00000000000;1955.00000000000;1966.00000000000;1972.00000000000;1987.00000000000;2013.00000000000;2012.00000000000;2049.00000000000;2082.00000000000;2123.00000000000;2173.00000000000;2178.00000000000;2243.00000000000;2220.00000000000;2237.00000000000;2196.00000000000;2186.00000000000;2155.00000000000;2093.00000000000;2049.00000000000;1985.00000000000;1877.00000000000;1782.00000000000;1814.00000000000;1901.00000000000;1900.00000000000;1800.00000000000;1812.00000000000;1923.00000000000;1893.00000000000;1907.00000000000;1971.00000000000;1979.00000000000;1991.00000000000;2004.00000000000;1996.00000000000;2000.00000000000;2016.00000000000;1997.00000000000;1995.00000000000;1997.00000000000;2014.00000000000;1987.00000000000;1957.00000000000;1920.00000000000;1897.00000000000;1867.00000000000;1919.00000000000;1996.00000000000;1955.00000000000;1874.00000000000;1778.00000000000;1886.00000000000;2038.00000000000;2049.00000000000;1909.00000000000;1923.00000000000;2175.00000000000;2229.00000000000;2108.00000000000;2051.00000000000;2096.00000000000;2109.00000000000;2125.00000000000;2102.00000000000;2057.00000000000;2039.00000000000;2009.00000000000;1990.00000000000;1962.00000000000;1929.00000000000;1944.00000000000;1944.00000000000;1934.00000000000;1921.00000000000;1916.00000000000;1924.00000000000;1920.00000000000;1958.00000000000;1963.00000000000;1972.00000000000;1951.00000000000;1960.00000000000;1981.00000000000;1981.00000000000;1967.00000000000;1992.00000000000;1991.00000000000;1995.00000000000;1980.00000000000;1972.00000000000;1981.00000000000;1977.00000000000;1987.00000000000;1966.00000000000;1987.00000000000;1970.00000000000;1954.00000000000;1971.00000000000;1981.00000000000;1970.00000000000;1970.00000000000;1987.00000000000;1970.00000000000;1969.00000000000;1975.00000000000;1980.00000000000
