COMMAND 3 SAMPLE 1
Accel X : 2838.00000000000;2846.00000000000;2834.00000000000;2831.00000000000;2819.00000000000;2831.00000000000;2825.00000000000;2858.00000000000;2835.00000000000;2843.00000000000;2833.00000000000;2845.00000000000;2838.00000000000;2827.00000000000;2832.00000000000;2852.00000000000;2822.00000000000;2843.00000000000;2845.00000000000;2822.00000000000;2820.00000000000;2832.00000000000;2857.00000000000;2827.00000000000;2829.00000000000;2840.00000000000;2844.00000000000;2827.00000000000;2847.00000000000;2824.00000000000;2812.00000000000;2832.00000000000;2815.00000000000;2801.00000000000;2828.00000000000;2828.00000000000;2821.00000000000;2835.00000000000;2827.00000000000;2826.00000000000;2818.00000000000;2829.00000000000;2845.00000000000;2842.00000000000;2822.00000000000;2855.00000000000;2840.00000000000;2829.00000000000;2845.00000000000;2865.00000000000;2886.00000000000;2989.00000000000;3047.00000000000;3050.00000000000;3053.00000000000;3157.00000000000;3192.00000000000;3147.00000000000;3110.00000000000;2980.00000000000;2839.00000000000;2725.00000000000;2758.00000000000;2651.00000000000;2387.00000000000;2222.00000000000;2125.00000000000;2075.00000000000;1890.00000000000;1691.00000000000;1599.00000000000;1625.00000000000;1618.00000000000;1604.00000000000;1571.00000000000;1577.00000000000;1672.00000000000;1694.00000000000;1657.00000000000;1656.00000000000;1687.00000000000;1710.00000000000;1686.00000000000;1633.00000000000;1638.00000000000;1677.00000000000;1813.00000000000;1935.00000000000;2039.00000000000;2095.00000000000;2157.00000000000;2238.00000000000;2300.00000000000;2353.00000000000;2349.00000000000;2378.00000000000;2519.00000000000;2602.00000000000;2632.00000000000;2689.00000000000;2710.00000000000;2764.00000000000;2854.00000000000;2983.00000000000;3072.00000000000;3056.00000000000;3087.00000000000;3032.00000000000;3028.00000000000;3017.00000000000;2983.00000000000;2956.00000000000;2933.00000000000;2925.00000000000;2889.00000000000;2873.00000000000;2868.00000000000;2852.00000000000;2858.00000000000;2848.00000000000;2816.00000000000;2803.00000000000;2806.00000000000;2799.00000000000;2810.00000000000;2840.00000000000;2847.00000000000;2858.00000000000;2846.00000000000;2836.00000000000;2854.00000000000;2865.00000000000;2854.00000000000;2849.00000000000;2854.00000000000;2870.00000000000;2855.00000000000;2857.00000000000;2851.00000000000;2857.00000000000;2837.00000000000;2853.00000000000;2855.00000000000;2845.00000000000;2857.00000000000;2825.00000000000;2853.00000000000;2826.00000000000;2857.00000000000;2851.00000000000
Accel Y : 1828.00000000000;1863.00000000000;1874.00000000000;1850.00000000000;1860.00000000000;1867.00000000000;1843.00000000000;1853.00000000000;1863.00000000000;1848.00000000000;1855.00000000000;1847.00000000000;1883.00000000000;1875.00000000000;1852.00000000000;1851.00000000000;1871.00000000000;1866.00000000000;1871.00000000000;1862.00000000000;1874.00000000000;1867.00000000000;1860.00000000000;1850.00000000000;1852.00000000000;1877.00000000000;1838.00000000000;1843.00000000000;1858.00000000000;1845.00000000000;1852.00000000000;1847.00000000000;1875.00000000000;1858.00000000000;1833.00000000000;1865.00000000000;1849.00000000000;1872.00000000000;1844.00000000000;1844.00000000000;1857.00000000000;1853.00000000000;1860.00000000000;1836.00000000000;1859.00000000000;1863.00000000000;1843.00000000000;1831.00000000000;1812.00000000000;1772.00000000000;1781.00000000000;1730.00000000000;1672.00000000000;1579.00000000000;1532.00000000000;1507.00000000000;1481.00000000000;1491.00000000000;1555.00000000000;1601.00000000000;1693.00000000000;1801.00000000000;1912.00000000000;2018.00000000000;2117.00000000000;2257.00000000000;2377.00000000000;2508.00000000000;2559.00000000000;2504.00000000000;2506.00000000000;2455.00000000000;2461.00000000000;2475.00000000000;2397.00000000000;2343.00000000000;2347.00000000000;2346.00000000000;2343.00000000000;2337.00000000000;2336.00000000000;2316.00000000000;2304.00000000000;2336.00000000000;2332.00000000000;2310.00000000000;2312.00000000000;2277.00000000000;2286.00000000000;2264.00000000000;2192.00000000000;2185.00000000000;2139.00000000000;2102.00000000000;2099.00000000000;2041.00000000000;1977.00000000000;1935.00000000000;1907.00000000000;1850.00000000000;1753.00000000000;1691.00000000000;1722.00000000000;1768.00000000000;1724.00000000000;1705.00000000000;1679.00000000000;1637.00000000000;1636.00000000000;1623.00000000000;1619.00000000000;1629.00000000000;1642.00000000000;1696.00000000000;1717.00000000000;1732.00000000000;1767.00000000000;1787.00000000000;1791.00000000000;1787.00000000000;1807.00000000000;1805.00000000000;1816.00000000000;1799.00000000000;1793.00000000000;1783.00000000000;1805.00000000000;1818.00000000000;1795.00000000000;1784.00000000000;1791.00000000000;1781.00000000000;1792.00000000000;1817.00000000000;1787.00000000000;1791.00000000000;1807.00000000000;1820.00000000000;1814.00000000000;1812.00000000000;1794.00000000000;1820.00000000000;1816.00000000000;1817.00000000000;1794.00000000000;1802.00000000000;1810.00000000000;1814.00000000000;1821.00000000000;1810.00000000000
Accel Z : 1953.00000000000;1976.00000000000;1958.00000000000;1937.00000000000;1940.00000000000;1950.00000000000;1959.00000000000;1947.00000000000;1943.00000000000;1958.00000000000;1942.00000000000;1956.00000000000;1950.00000000000;1965.00000000000;1953.00000000000;1936.00000000000;1955.00000000000;1963.00000000000;1963.00000000000;1949.00000000000;1932.00000000000;1938.00000000000;1960.00000000000;1931.00000000000;1950.00000000000;1948.00000000000;1946.00000000000;1957.00000000000;1956.00000000000;1964.00000000000;1957.00000000000;1959.00000000000;1948.00000000000;1957.00000000000;1914.00000000000;1952.00000000000;1941.00000000000;1948.00000000000;1930.00000000000;1957.00000000000;1955.00000000000;1935.00000000000;1953.00000000000;1963.00000000000;1938.00000000000;1941.00000000000;1957.00000000000;1952.00000000000;1953.00000000000;1950.00000000000;1963.00000000000;1960.00000000000;1932.00000000000;1943.00000000000;1964.00000000000;1971.00000000000;1984.00000000000;1955.00000000000;1887.00000000000;1867.00000000000;1917.00000000000;1971.00000000000;1970.00000000000;1994.00000000000;2040.00000000000;2183.00000000000;2317.00000000000;2435.00000000000;2443.00000000000;2436.00000000000;2459.00000000000;2617.00000000000;2706.00000000000;2738.00000000000;2697.00000000000;2699.00000000000;2728.00000000000;2789.00000000000;2755.00000000000;2769.00000000000;2752.00000000000;2760.00000000000;2779.00000000000;2819.00000000000;2755.00000000000;2728.00000000000;2692.00000000000;2675.00000000000;2623.00000000000;2556.00000000000;2496.00000000000;2449.00000000000;2426.00000000000;2356.00000000000;2278.00000000000;2169.00000000000;2150.00000000000;2073.00000000000;2045.00000000000;1966.00000000000;1953.00000000000;1887.00000000000;1871.00000000000;1788.00000000000;1721.00000000000;1637.00000000000;1607.00000000000;1593.00000000000;1600.00000000000;1610.00000000000;1619.00000000000;1586.00000000000;1595.00000000000;1632.00000000000;1641.00000000000;1686.00000000000;1690.00000000000;1703.00000000000;1729.00000000000;1716.00000000000;1749.00000000000;1762.00000000000;1776.00000000000;1775.00000000000;1770.00000000000;1779.00000000000;1792.00000000000;1786.00000000000;1770.00000000000;1778.00000000000;1808.00000000000;1778.00000000000;1804.00000000000;1785.00000000000;1795.00000000000;1786.00000000000;1771.00000000000;1778.00000000000;1770.00000000000;1773.00000000000;1786.00000000000;1778.00000000000;1791.00000000000;1785.00000000000;1765.00000000000;1770.00000000000;1773.00000000000;1795.00000000000;1800.00000000000;1786.00000000000
Gyro X : 2838.00000000000;2846.00000000000;2834.00000000000;2831.00000000000;2819.00000000000;2831.00000000000;2825.00000000000;2858.00000000000;2835.00000000000;2843.00000000000;2833.00000000000;2845.00000000000;2838.00000000000;2827.00000000000;2832.00000000000;2852.00000000000;2822.00000000000;2843.00000000000;2845.00000000000;2822.00000000000;2820.00000000000;2832.00000000000;2857.00000000000;2827.00000000000;2829.00000000000;2840.00000000000;2844.00000000000;2827.00000000000;2847.00000000000;2824.00000000000;2812.00000000000;2832.00000000000;2815.00000000000;2801.00000000000;2828.00000000000;2828.00000000000;2821.00000000000;2835.00000000000;2827.00000000000;2826.00000000000;2818.00000000000;2829.00000000000;2845.00000000000;2842.00000000000;2822.00000000000;2855.00000000000;2840.00000000000;2829.00000000000;2845.00000000000;2865.00000000000;2886.00000000000;2989.00000000000;3047.00000000000;3050.00000000000;3053.00000000000;3157.00000000000;3192.00000000000;3147.00000000000;3110.00000000000;2980.00000000000;2839.00000000000;2725.00000000000;2758.00000000000;2651.00000000000;2387.00000000000;2222.00000000000;2125.00000000000;2075.00000000000;1890.00000000000;1691.00000000000;1599.00000000000;1625.00000000000;1618.00000000000;1604.00000000000;1571.00000000000;1577.00000000000;1672.00000000000;1694.00000000000;1657.00000000000;1656.00000000000;1687.00000000000;1710.00000000000;1686.00000000000;1633.00000000000;1638.00000000000;1677.00000000000;1813.00000000000;1935.00000000000;2039.00000000000;2095.00000000000;2157.00000000000;2238.00000000000;2300.00000000000;2353.00000000000;2349.00000000000;2378.00000000000;2519.00000000000;2602.00000000000;2632.00000000000;2689.00000000000;2710.00000000000;2764.00000000000;2854.00000000000;2983.00000000000;3072.00000000000;3056.00000000000;3087.00000000000;3032.00000000000;3028.00000000000;3017.00000000000;2983.00000000000;2956.00000000000;2933.00000000000;2925.00000000000;2889.00000000000;2873.00000000000;2868.00000000000;2852.00000000000;2858.00000000000;2848.00000000000;2816.00000000000;2803.00000000000;2806.00000000000;2799.00000000000;2810.00000000000;2840.00000000000;2847.00000000000;2858.00000000000;2846.00000000000;2836.00000000000;2854.00000000000;2865.00000000000;2854.00000000000;2849.00000000000;2854.00000000000;2870.00000000000;2855.00000000000;2857.00000000000;2851.00000000000;2857.00000000000;2837.00000000000;2853.00000000000;2855.00000000000;2845.00000000000;2857.00000000000;2825.00000000000;2853.00000000000;2826.00000000000;2857.00000000000;2851.00000000000
Gyro Y : 1828.00000000000;1863.00000000000;1874.00000000000;1850.00000000000;1860.00000000000;1867.00000000000;1843.00000000000;1853.00000000000;1863.00000000000;1848.00000000000;1855.00000000000;1847.00000000000;1883.00000000000;1875.00000000000;1852.00000000000;1851.00000000000;1871.00000000000;1866.00000000000;1871.00000000000;1862.00000000000;1874.00000000000;1867.00000000000;1860.00000000000;1850.00000000000;1852.00000000000;1877.00000000000;1838.00000000000;1843.00000000000;1858.00000000000;1845.00000000000;1852.00000000000;1847.00000000000;1875.00000000000;1858.00000000000;1833.00000000000;1865.00000000000;1849.00000000000;1872.00000000000;1844.00000000000;1844.00000000000;1857.00000000000;1853.00000000000;1860.00000000000;1836.00000000000;1859.00000000000;1863.00000000000;1843.00000000000;1831.00000000000;1812.00000000000;1772.00000000000;1781.00000000000;1730.00000000000;1672.00000000000;1579.00000000000;1532.00000000000;1507.00000000000;1481.00000000000;1491.00000000000;1555.00000000000;1601.00000000000;1693.00000000000;1801.00000000000;1912.00000000000;2018.00000000000;2117.00000000000;2257.00000000000;2377.00000000000;2508.00000000000;2559.00000000000;2504.00000000000;2506.00000000000;2455.00000000000;2461.00000000000;2475.00000000000;2397.00000000000;2343.00000000000;2347.00000000000;2346.00000000000;2343.00000000000;2337.00000000000;2336.00000000000;2316.00000000000;2304.00000000000;2336.00000000000;2332.00000000000;2310.00000000000;2312.00000000000;2277.00000000000;2286.00000000000;2264.00000000000;2192.00000000000;2185.00000000000;2139.00000000000;2102.00000000000;2099.00000000000;2041.00000000000;1977.00000000000;1935.00000000000;1907.00000000000;1850.00000000000;1753.00000000000;1691.00000000000;1722.00000000000;1768.00000000000;1724.00000000000;1705.00000000000;1679.00000000000;1637.00000000000;1636.00000000000;1623.00000000000;1619.00000000000;1629.00000000000;1642.00000000000;1696.00000000000;1717.00000000000;1732.00000000000;1767.00000000000;1787.00000000000;1791.00000000000;1787.00000000000;1807.00000000000;1805.00000000000;1816.00000000000;1799.00000000000;1793.00000000000;1783.00000000000;1805.00000000000;1818.00000000000;1795.00000000000;1784.00000000000;1791.00000000000;1781.00000000000;1792.00000000000;1817.00000000000;1787.00000000000;1791.00000000000;1807.00000000000;1820.00000000000;1814.00000000000;1812.00000000000;1794.00000000000;1820.00000000000;1816.00000000000;1817.00000000000;1794.00000000000;1802.00000000000;1810.00000000000;1814.00000000000;1821.00000000000;1810.00000000000
Gyro Z : 1953.00000000000;1976.00000000000;1958.00000000000;1937.00000000000;1940.00000000000;1950.00000000000;1959.00000000000;1947.00000000000;1943.00000000000;1958.00000000000;1942.00000000000;1956.00000000000;1950.00000000000;1965.00000000000;1953.00000000000;1936.00000000000;1955.00000000000;1963.00000000000;1963.00000000000;1949.00000000000;1932.00000000000;1938.00000000000;1960.00000000000;1931.00000000000;1950.00000000000;1948.00000000000;1946.00000000000;1957.00000000000;1956.00000000000;1964.00000000000;1957.00000000000;1959.00000000000;1948.00000000000;1957.00000000000;1914.00000000000;1952.00000000000;1941.00000000000;1948.00000000000;1930.00000000000;1957.00000000000;1955.00000000000;1935.00000000000;1953.00000000000;1963.00000000000;1938.00000000000;1941.00000000000;1957.00000000000;1952.00000000000;1953.00000000000;1950.00000000000;1963.00000000000;1960.00000000000;1932.00000000000;1943.00000000000;1964.00000000000;1971.00000000000;1984.00000000000;1955.00000000000;1887.00000000000;1867.00000000000;1917.00000000000;1971.00000000000;1970.00000000000;1994.00000000000;2040.00000000000;2183.00000000000;2317.00000000000;2435.00000000000;2443.00000000000;2436.00000000000;2459.00000000000;2617.00000000000;2706.00000000000;2738.00000000000;2697.00000000000;2699.00000000000;2728.00000000000;2789.00000000000;2755.00000000000;2769.00000000000;2752.00000000000;2760.00000000000;2779.00000000000;2819.00000000000;2755.00000000000;2728.00000000000;2692.00000000000;2675.00000000000;2623.00000000000;2556.00000000000;2496.00000000000;2449.00000000000;2426.00000000000;2356.00000000000;2278.00000000000;2169.00000000000;2150.00000000000;2073.00000000000;2045.00000000000;1966.00000000000;1953.00000000000;1887.00000000000;1871.00000000000;1788.00000000000;1721.00000000000;1637.00000000000;1607.00000000000;1593.00000000000;1600.00000000000;1610.00000000000;1619.00000000000;1586.00000000000;1595.00000000000;1632.00000000000;1641.00000000000;1686.00000000000;1690.00000000000;1703.00000000000;1729.00000000000;1716.00000000000;1749.00000000000;1762.00000000000;1776.00000000000;1775.00000000000;1770.00000000000;1779.00000000000;1792.00000000000;1786.00000000000;1770.00000000000;1778.00000000000;1808.00000000000;1778.00000000000;1804.00000000000;1785.00000000000;1795.00000000000;1786.00000000000;1771.00000000000;1778.00000000000;1770.00000000000;1773.00000000000;1786.00000000000;1778.00000000000;1791.00000000000;1785.00000000000;1765.00000000000;1770.00000000000;1773.00000000000;1795.00000000000;1800.00000000000;1786.00000000000
