COMMAND 2 SAMPLE 1
Accel X : 2830.00000000000;2837.00000000000;2860.00000000000;2842.00000000000;2844.00000000000;2851.00000000000;2844.00000000000;2853.00000000000;2849.00000000000;2851.00000000000;2842.00000000000;2831.00000000000;2836.00000000000;2843.00000000000;2844.00000000000;2847.00000000000;2854.00000000000;2825.00000000000;2828.00000000000;2839.00000000000;2836.00000000000;2856.00000000000;2851.00000000000;2856.00000000000;2857.00000000000;2854.00000000000;2837.00000000000;2852.00000000000;2848.00000000000;2857.00000000000;2870.00000000000;2864.00000000000;2859.00000000000;2852.00000000000;2851.00000000000;2838.00000000000;2811.00000000000;2850.00000000000;2836.00000000000;2852.00000000000;2834.00000000000;2833.00000000000;2837.00000000000;2831.00000000000;2846.00000000000;2834.00000000000;2835.00000000000;2794.00000000000;2819.00000000000;2830.00000000000;2871.00000000000;2874.00000000000;2850.00000000000;2916.00000000000;2978.00000000000;3046.00000000000;3121.00000000000;3122.00000000000;3018.00000000000;2928.00000000000;2869.00000000000;2840.00000000000;2846.00000000000;2806.00000000000;2760.00000000000;2678.00000000000;2607.00000000000;2535.00000000000;2423.00000000000;2390.00000000000;2285.00000000000;2194.00000000000;2091.00000000000;1909.00000000000;1911.00000000000;1967.00000000000;2067.00000000000;2164.00000000000;2166.00000000000;2245.00000000000;2309.00000000000;2327.00000000000;2360.00000000000;2370.00000000000;2373.00000000000;2360.00000000000;2375.00000000000;2346.00000000000;2410.00000000000;2418.00000000000;2386.00000000000;2432.00000000000;2471.00000000000;2513.00000000000;2589.00000000000;2580.00000000000;2507.00000000000;2575.00000000000;2674.00000000000;2777.00000000000;2770.00000000000;2677.00000000000;2682.00000000000;2764.00000000000;2814.00000000000;2766.00000000000;2657.00000000000;2696.00000000000;2818.00000000000;2869.00000000000;2904.00000000000;2888.00000000000;2796.00000000000;2769.00000000000;2822.00000000000;2834.00000000000;2886.00000000000;2886.00000000000;2824.00000000000;2805.00000000000;2802.00000000000;2796.00000000000;2814.00000000000;2796.00000000000;2811.00000000000;2788.00000000000;2794.00000000000;2807.00000000000;2797.00000000000;2807.00000000000;2810.00000000000;2814.00000000000;2773.00000000000;2811.00000000000;2842.00000000000;2831.00000000000;2815.00000000000;2826.00000000000;2829.00000000000;2837.00000000000;2834.00000000000;2811.00000000000;2874.00000000000;2845.00000000000;2862.00000000000;2823.00000000000;2859.00000000000;2828.00000000000;2808.00000000000;2820.00000000000
Accel Y : 1955.00000000000;1936.00000000000;1943.00000000000;1934.00000000000;1955.00000000000;1953.00000000000;1948.00000000000;1957.00000000000;1954.00000000000;1932.00000000000;1949.00000000000;1972.00000000000;1932.00000000000;1943.00000000000;1969.00000000000;1952.00000000000;1951.00000000000;1959.00000000000;1950.00000000000;1958.00000000000;1972.00000000000;1960.00000000000;1963.00000000000;1943.00000000000;1956.00000000000;1954.00000000000;1957.00000000000;1958.00000000000;1955.00000000000;1947.00000000000;1957.00000000000;1954.00000000000;1947.00000000000;1949.00000000000;1949.00000000000;1941.00000000000;1949.00000000000;1959.00000000000;1963.00000000000;1961.00000000000;1959.00000000000;1944.00000000000;1943.00000000000;1946.00000000000;1929.00000000000;1953.00000000000;1954.00000000000;1930.00000000000;1906.00000000000;1895.00000000000;1879.00000000000;1895.00000000000;1919.00000000000;1987.00000000000;2038.00000000000;2073.00000000000;2133.00000000000;2208.00000000000;2232.00000000000;2248.00000000000;2268.00000000000;2284.00000000000;2276.00000000000;2283.00000000000;2275.00000000000;2222.00000000000;2138.00000000000;2081.00000000000;1969.00000000000;1852.00000000000;1791.00000000000;1748.00000000000;1706.00000000000;1682.00000000000;1646.00000000000;1617.00000000000;1576.00000000000;1535.00000000000;1497.00000000000;1471.00000000000;1439.00000000000;1417.00000000000;1399.00000000000;1405.00000000000;1416.00000000000;1420.00000000000;1438.00000000000;1459.00000000000;1495.00000000000;1509.00000000000;1531.00000000000;1564.00000000000;1592.00000000000;1634.00000000000;1650.00000000000;1677.00000000000;1715.00000000000;1785.00000000000;1841.00000000000;1887.00000000000;1911.00000000000;1901.00000000000;1965.00000000000;2027.00000000000;2041.00000000000;2008.00000000000;2024.00000000000;2065.00000000000;2071.00000000000;2066.00000000000;2064.00000000000;2033.00000000000;2035.00000000000;2003.00000000000;2000.00000000000;2007.00000000000;2016.00000000000;1998.00000000000;1975.00000000000;1977.00000000000;1958.00000000000;1974.00000000000;1967.00000000000;1948.00000000000;1959.00000000000;1947.00000000000;1933.00000000000;1942.00000000000;1921.00000000000;1937.00000000000;1919.00000000000;1929.00000000000;1911.00000000000;1930.00000000000;1930.00000000000;1916.00000000000;1930.00000000000;1939.00000000000;1900.00000000000;1926.00000000000;1919.00000000000;1939.00000000000;1932.00000000000;1921.00000000000;1927.00000000000;1937.00000000000;1948.00000000000;1906.00000000000;1923.00000000000;1921.00000000000
Accel Z : 1941.00000000000;1930.00000000000;1928.00000000000;1926.00000000000;1908.00000000000;1915.00000000000;1923.00000000000;1929.00000000000;1921.00000000000;1911.00000000000;1933.00000000000;1944.00000000000;1930.00000000000;1916.00000000000;1942.00000000000;1914.00000000000;1900.00000000000;1917.00000000000;1908.00000000000;1930.00000000000;1912.00000000000;1905.00000000000;1889.00000000000;1910.00000000000;1924.00000000000;1920.00000000000;1937.00000000000;1928.00000000000;1923.00000000000;1939.00000000000;1920.00000000000;1947.00000000000;1926.00000000000;1937.00000000000;1923.00000000000;1946.00000000000;1923.00000000000;1937.00000000000;1909.00000000000;1918.00000000000;1907.00000000000;1927.00000000000;1937.00000000000;1921.00000000000;1907.00000000000;1937.00000000000;1923.00000000000;1908.00000000000;1945.00000000000;1973.00000000000;2007.00000000000;2053.00000000000;2135.00000000000;2204.00000000000;2276.00000000000;2361.00000000000;2441.00000000000;2483.00000000000;2499.00000000000;2491.00000000000;2374.00000000000;2370.00000000000;2213.00000000000;2050.00000000000;1884.00000000000;1710.00000000000;1510.00000000000;1361.00000000000;1185.00000000000;1023.00000000000;987.000000000000;871.000000000000;792.000000000000;668.000000000000;592.000000000000;560.000000000000;643.000000000000;663.000000000000;773.000000000000;815.000000000000;834.000000000000;900.000000000000;875.000000000000;821.000000000000;845.000000000000;782.000000000000;767.000000000000;724.000000000000;785.000000000000;812.000000000000;823.000000000000;870.000000000000;955.000000000000;1019.00000000000;1126.00000000000;1201.00000000000;1229.00000000000;1340.00000000000;1505.00000000000;1598.00000000000;1616.00000000000;1661.00000000000;1797.00000000000;1959.00000000000;2026.00000000000;1998.00000000000;2066.00000000000;2184.00000000000;2267.00000000000;2318.00000000000;2358.00000000000;2329.00000000000;2331.00000000000;2327.00000000000;2299.00000000000;2268.00000000000;2260.00000000000;2233.00000000000;2186.00000000000;2148.00000000000;2136.00000000000;2145.00000000000;2093.00000000000;2075.00000000000;2046.00000000000;2039.00000000000;2013.00000000000;2017.00000000000;1999.00000000000;2001.00000000000;1996.00000000000;2007.00000000000;1999.00000000000;1984.00000000000;2004.00000000000;1994.00000000000;1999.00000000000;2011.00000000000;1990.00000000000;1987.00000000000;1993.00000000000;1989.00000000000;1986.00000000000;2005.00000000000;2011.00000000000;1982.00000000000;2010.00000000000;2018.00000000000;1997.00000000000;1982.00000000000
Gyro X : 2830.00000000000;2837.00000000000;2860.00000000000;2842.00000000000;2844.00000000000;2851.00000000000;2844.00000000000;2853.00000000000;2849.00000000000;2851.00000000000;2842.00000000000;2831.00000000000;2836.00000000000;2843.00000000000;2844.00000000000;2847.00000000000;2854.00000000000;2825.00000000000;2828.00000000000;2839.00000000000;2836.00000000000;2856.00000000000;2851.00000000000;2856.00000000000;2857.00000000000;2854.00000000000;2837.00000000000;2852.00000000000;2848.00000000000;2857.00000000000;2870.00000000000;2864.00000000000;2859.00000000000;2852.00000000000;2851.00000000000;2838.00000000000;2811.00000000000;2850.00000000000;2836.00000000000;2852.00000000000;2834.00000000000;2833.00000000000;2837.00000000000;2831.00000000000;2846.00000000000;2834.00000000000;2835.00000000000;2794.00000000000;2819.00000000000;2830.00000000000;2871.00000000000;2874.00000000000;2850.00000000000;2916.00000000000;2978.00000000000;3046.00000000000;3121.00000000000;3122.00000000000;3018.00000000000;2928.00000000000;2869.00000000000;2840.00000000000;2846.00000000000;2806.00000000000;2760.00000000000;2678.00000000000;2607.00000000000;2535.00000000000;2423.00000000000;2390.00000000000;2285.00000000000;2194.00000000000;2091.00000000000;1909.00000000000;1911.00000000000;1967.00000000000;2067.00000000000;2164.00000000000;2166.00000000000;2245.00000000000;2309.00000000000;2327.00000000000;2360.00000000000;2370.00000000000;2373.00000000000;2360.00000000000;2375.00000000000;2346.00000000000;2410.00000000000;2418.00000000000;2386.00000000000;2432.00000000000;2471.00000000000;2513.00000000000;2589.00000000000;2580.00000000000;2507.00000000000;2575.00000000000;2674.00000000000;2777.00000000000;2770.00000000000;2677.00000000000;2682.00000000000;2764.00000000000;2814.00000000000;2766.00000000000;2657.00000000000;2696.00000000000;2818.00000000000;2869.00000000000;2904.00000000000;2888.00000000000;2796.00000000000;2769.00000000000;2822.00000000000;2834.00000000000;2886.00000000000;2886.00000000000;2824.00000000000;2805.00000000000;2802.00000000000;2796.00000000000;2814.00000000000;2796.00000000000;2811.00000000000;2788.00000000000;2794.00000000000;2807.00000000000;2797.00000000000;2807.00000000000;2810.00000000000;2814.00000000000;2773.00000000000;2811.00000000000;2842.00000000000;2831.00000000000;2815.00000000000;2826.00000000000;2829.00000000000;2837.00000000000;2834.00000000000;2811.00000000000;2874.00000000000;2845.00000000000;2862.00000000000;2823.00000000000;2859.00000000000;2828.00000000000;2808.00000000000;2820.00000000000
Gyro Y : 1955.00000000000;1936.00000000000;1943.00000000000;1934.00000000000;1955.00000000000;1953.00000000000;1948.00000000000;1957.00000000000;1954.00000000000;1932.00000000000;1949.00000000000;1972.00000000000;1932.00000000000;1943.00000000000;1969.00000000000;1952.00000000000;1951.00000000000;1959.00000000000;1950.00000000000;1958.00000000000;1972.00000000000;1960.00000000000;1963.00000000000;1943.00000000000;1956.00000000000;1954.00000000000;1957.00000000000;1958.00000000000;1955.00000000000;1947.00000000000;1957.00000000000;1954.00000000000;1947.00000000000;1949.00000000000;1949.00000000000;1941.00000000000;1949.00000000000;1959.00000000000;1963.00000000000;1961.00000000000;1959.00000000000;1944.00000000000;1943.00000000000;1946.00000000000;1929.00000000000;1953.00000000000;1954.00000000000;1930.00000000000;1906.00000000000;1895.00000000000;1879.00000000000;1895.00000000000;1919.00000000000;1987.00000000000;2038.00000000000;2073.00000000000;2133.00000000000;2208.00000000000;2232.00000000000;2248.00000000000;2268.00000000000;2284.00000000000;2276.00000000000;2283.00000000000;2275.00000000000;2222.00000000000;2138.00000000000;2081.00000000000;1969.00000000000;1852.00000000000;1791.00000000000;1748.00000000000;1706.00000000000;1682.00000000000;1646.00000000000;1617.00000000000;1576.00000000000;1535.00000000000;1497.00000000000;1471.00000000000;1439.00000000000;1417.00000000000;1399.00000000000;1405.00000000000;1416.00000000000;1420.00000000000;1438.00000000000;1459.00000000000;1495.00000000000;1509.00000000000;1531.00000000000;1564.00000000000;1592.00000000000;1634.00000000000;1650.00000000000;1677.00000000000;1715.00000000000;1785.00000000000;1841.00000000000;1887.00000000000;1911.00000000000;1901.00000000000;1965.00000000000;2027.00000000000;2041.00000000000;2008.00000000000;2024.00000000000;2065.00000000000;2071.00000000000;2066.00000000000;2064.00000000000;2033.00000000000;2035.00000000000;2003.00000000000;2000.00000000000;2007.00000000000;2016.00000000000;1998.00000000000;1975.00000000000;1977.00000000000;1958.00000000000;1974.00000000000;1967.00000000000;1948.00000000000;1959.00000000000;1947.00000000000;1933.00000000000;1942.00000000000;1921.00000000000;1937.00000000000;1919.00000000000;1929.00000000000;1911.00000000000;1930.00000000000;1930.00000000000;1916.00000000000;1930.00000000000;1939.00000000000;1900.00000000000;1926.00000000000;1919.00000000000;1939.00000000000;1932.00000000000;1921.00000000000;1927.00000000000;1937.00000000000;1948.00000000000;1906.00000000000;1923.00000000000;1921.00000000000
Gyro Z : 1941.00000000000;1930.00000000000;1928.00000000000;1926.00000000000;1908.00000000000;1915.00000000000;1923.00000000000;1929.00000000000;1921.00000000000;1911.00000000000;1933.00000000000;1944.00000000000;1930.00000000000;1916.00000000000;1942.00000000000;1914.00000000000;1900.00000000000;1917.00000000000;1908.00000000000;1930.00000000000;1912.00000000000;1905.00000000000;1889.00000000000;1910.00000000000;1924.00000000000;1920.00000000000;1937.00000000000;1928.00000000000;1923.00000000000;1939.00000000000;1920.00000000000;1947.00000000000;1926.00000000000;1937.00000000000;1923.00000000000;1946.00000000000;1923.00000000000;1937.00000000000;1909.00000000000;1918.00000000000;1907.00000000000;1927.00000000000;1937.00000000000;1921.00000000000;1907.00000000000;1937.00000000000;1923.00000000000;1908.00000000000;1945.00000000000;1973.00000000000;2007.00000000000;2053.00000000000;2135.00000000000;2204.00000000000;2276.00000000000;2361.00000000000;2441.00000000000;2483.00000000000;2499.00000000000;2491.00000000000;2374.00000000000;2370.00000000000;2213.00000000000;2050.00000000000;1884.00000000000;1710.00000000000;1510.00000000000;1361.00000000000;1185.00000000000;1023.00000000000;987.000000000000;871.000000000000;792.000000000000;668.000000000000;592.000000000000;560.000000000000;643.000000000000;663.000000000000;773.000000000000;815.000000000000;834.000000000000;900.000000000000;875.000000000000;821.000000000000;845.000000000000;782.000000000000;767.000000000000;724.000000000000;785.000000000000;812.000000000000;823.000000000000;870.000000000000;955.000000000000;1019.00000000000;1126.00000000000;1201.00000000000;1229.00000000000;1340.00000000000;1505.00000000000;1598.00000000000;1616.00000000000;1661.00000000000;1797.00000000000;1959.00000000000;2026.00000000000;1998.00000000000;2066.00000000000;2184.00000000000;2267.00000000000;2318.00000000000;2358.00000000000;2329.00000000000;2331.00000000000;2327.00000000000;2299.00000000000;2268.00000000000;2260.00000000000;2233.00000000000;2186.00000000000;2148.00000000000;2136.00000000000;2145.00000000000;2093.00000000000;2075.00000000000;2046.00000000000;2039.00000000000;2013.00000000000;2017.00000000000;1999.00000000000;2001.00000000000;1996.00000000000;2007.00000000000;1999.00000000000;1984.00000000000;2004.00000000000;1994.00000000000;1999.00000000000;2011.00000000000;1990.00000000000;1987.00000000000;1993.00000000000;1989.00000000000;1986.00000000000;2005.00000000000;2011.00000000000;1982.00000000000;2010.00000000000;2018.00000000000;1997.00000000000;1982.00000000000
