COMMAND 3 SAMPLE 1
Accel X : 2822.00000000000;2813.00000000000;2812.00000000000;2820.00000000000;2828.00000000000;2801.00000000000;2820.00000000000;2836.00000000000;2808.00000000000;2800.00000000000;2802.00000000000;2814.00000000000;2816.00000000000;2818.00000000000;2789.00000000000;2820.00000000000;2799.00000000000;2819.00000000000;2797.00000000000;2828.00000000000;2834.00000000000;2822.00000000000;2837.00000000000;2830.00000000000;2838.00000000000;2833.00000000000;2821.00000000000;2831.00000000000;2836.00000000000;2823.00000000000;2853.00000000000;2817.00000000000;2837.00000000000;2817.00000000000;2810.00000000000;2808.00000000000;2818.00000000000;2821.00000000000;2850.00000000000;2809.00000000000;2816.00000000000;2818.00000000000;2825.00000000000;2826.00000000000;2809.00000000000;2807.00000000000;2851.00000000000;2808.00000000000;2852.00000000000;2816.00000000000;2830.00000000000;2823.00000000000;2822.00000000000;2828.00000000000;2844.00000000000;2842.00000000000;2831.00000000000;2822.00000000000;2850.00000000000;2845.00000000000;2868.00000000000;2877.00000000000;2919.00000000000;2919.00000000000;3007.00000000000;3139.00000000000;3172.00000000000;3143.00000000000;3176.00000000000;3271.00000000000;3193.00000000000;3202.00000000000;3163.00000000000;3083.00000000000;2939.00000000000;2734.00000000000;2425.00000000000;2094.00000000000;1856.00000000000;1551.00000000000;1370.00000000000;1368.00000000000;1294.00000000000;1351.00000000000;1440.00000000000;1529.00000000000;1527.00000000000;1595.00000000000;1712.00000000000;1794.00000000000;1788.00000000000;1780.00000000000;1719.00000000000;1733.00000000000;1705.00000000000;1714.00000000000;1658.00000000000;1647.00000000000;1674.00000000000;1842.00000000000;1976.00000000000;2029.00000000000;2087.00000000000;2178.00000000000;2308.00000000000;2396.00000000000;2547.00000000000;2649.00000000000;2802.00000000000;2990.00000000000;3122.00000000000;3197.00000000000;3210.00000000000;3087.00000000000;3000.00000000000;2931.00000000000;2914.00000000000;2951.00000000000;2980.00000000000;2972.00000000000;2921.00000000000;2887.00000000000;2854.00000000000;2852.00000000000;2820.00000000000;2835.00000000000;2863.00000000000;2837.00000000000;2827.00000000000;2802.00000000000;2805.00000000000;2793.00000000000;2800.00000000000;2784.00000000000;2802.00000000000;2808.00000000000;2825.00000000000;2801.00000000000;2809.00000000000;2802.00000000000;2840.00000000000;2834.00000000000;2826.00000000000;2821.00000000000;2837.00000000000;2843.00000000000;2840.00000000000;2833.00000000000;2819.00000000000;2811.00000000000
Accel Y : 1768.00000000000;1788.00000000000;1765.00000000000;1769.00000000000;1766.00000000000;1775.00000000000;1755.00000000000;1770.00000000000;1786.00000000000;1750.00000000000;1763.00000000000;1790.00000000000;1778.00000000000;1778.00000000000;1776.00000000000;1789.00000000000;1793.00000000000;1754.00000000000;1774.00000000000;1768.00000000000;1767.00000000000;1766.00000000000;1751.00000000000;1763.00000000000;1770.00000000000;1768.00000000000;1779.00000000000;1756.00000000000;1779.00000000000;1766.00000000000;1765.00000000000;1765.00000000000;1749.00000000000;1780.00000000000;1759.00000000000;1774.00000000000;1755.00000000000;1769.00000000000;1781.00000000000;1753.00000000000;1756.00000000000;1784.00000000000;1759.00000000000;1768.00000000000;1760.00000000000;1757.00000000000;1748.00000000000;1781.00000000000;1779.00000000000;1771.00000000000;1769.00000000000;1757.00000000000;1766.00000000000;1766.00000000000;1773.00000000000;1777.00000000000;1774.00000000000;1777.00000000000;1788.00000000000;1788.00000000000;1765.00000000000;1719.00000000000;1668.00000000000;1633.00000000000;1566.00000000000;1512.00000000000;1463.00000000000;1431.00000000000;1383.00000000000;1453.00000000000;1529.00000000000;1640.00000000000;1751.00000000000;1895.00000000000;2094.00000000000;2292.00000000000;2501.00000000000;2598.00000000000;2570.00000000000;2565.00000000000;2526.00000000000;2466.00000000000;2410.00000000000;2323.00000000000;2275.00000000000;2259.00000000000;2221.00000000000;2143.00000000000;2064.00000000000;2102.00000000000;2127.00000000000;2102.00000000000;2131.00000000000;2146.00000000000;2161.00000000000;2203.00000000000;2261.00000000000;2301.00000000000;2267.00000000000;2219.00000000000;2214.00000000000;2286.00000000000;2305.00000000000;2168.00000000000;2030.00000000000;2009.00000000000;1999.00000000000;1855.00000000000;1710.00000000000;1788.00000000000;1745.00000000000;1642.00000000000;1658.00000000000;1604.00000000000;1575.00000000000;1540.00000000000;1538.00000000000;1529.00000000000;1576.00000000000;1611.00000000000;1632.00000000000;1644.00000000000;1657.00000000000;1709.00000000000;1715.00000000000;1716.00000000000;1731.00000000000;1741.00000000000;1727.00000000000;1751.00000000000;1756.00000000000;1741.00000000000;1753.00000000000;1749.00000000000;1753.00000000000;1739.00000000000;1754.00000000000;1747.00000000000;1754.00000000000;1726.00000000000;1729.00000000000;1730.00000000000;1730.00000000000;1731.00000000000;1704.00000000000;1727.00000000000;1734.00000000000;1732.00000000000;1725.00000000000;1728.00000000000
Accel Z : 1872.00000000000;1852.00000000000;1861.00000000000;1855.00000000000;1875.00000000000;1865.00000000000;1852.00000000000;1862.00000000000;1850.00000000000;1869.00000000000;1869.00000000000;1875.00000000000;1870.00000000000;1877.00000000000;1863.00000000000;1880.00000000000;1850.00000000000;1857.00000000000;1874.00000000000;1846.00000000000;1875.00000000000;1873.00000000000;1859.00000000000;1870.00000000000;1873.00000000000;1868.00000000000;1872.00000000000;1877.00000000000;1879.00000000000;1873.00000000000;1866.00000000000;1842.00000000000;1874.00000000000;1861.00000000000;1855.00000000000;1853.00000000000;1861.00000000000;1860.00000000000;1845.00000000000;1867.00000000000;1851.00000000000;1845.00000000000;1876.00000000000;1875.00000000000;1846.00000000000;1862.00000000000;1865.00000000000;1846.00000000000;1871.00000000000;1863.00000000000;1868.00000000000;1898.00000000000;1871.00000000000;1893.00000000000;1867.00000000000;1870.00000000000;1878.00000000000;1886.00000000000;1897.00000000000;1914.00000000000;1913.00000000000;1888.00000000000;1924.00000000000;1891.00000000000;1869.00000000000;1846.00000000000;1793.00000000000;1758.00000000000;1677.00000000000;1675.00000000000;1713.00000000000;1716.00000000000;1771.00000000000;1837.00000000000;1949.00000000000;2043.00000000000;2156.00000000000;2229.00000000000;2255.00000000000;2374.00000000000;2491.00000000000;2572.00000000000;2623.00000000000;2667.00000000000;2742.00000000000;2726.00000000000;2755.00000000000;2738.00000000000;2798.00000000000;2851.00000000000;2839.00000000000;2816.00000000000;2827.00000000000;2821.00000000000;2813.00000000000;2819.00000000000;2800.00000000000;2753.00000000000;2698.00000000000;2693.00000000000;2598.00000000000;2500.00000000000;2365.00000000000;2204.00000000000;2122.00000000000;2043.00000000000;1894.00000000000;1759.00000000000;1733.00000000000;1694.00000000000;1547.00000000000;1435.00000000000;1404.00000000000;1396.00000000000;1447.00000000000;1524.00000000000;1517.00000000000;1526.00000000000;1572.00000000000;1629.00000000000;1646.00000000000;1654.00000000000;1681.00000000000;1716.00000000000;1763.00000000000;1781.00000000000;1792.00000000000;1828.00000000000;1821.00000000000;1797.00000000000;1832.00000000000;1831.00000000000;1841.00000000000;1825.00000000000;1797.00000000000;1806.00000000000;1805.00000000000;1813.00000000000;1795.00000000000;1794.00000000000;1786.00000000000;1784.00000000000;1788.00000000000;1808.00000000000;1770.00000000000;1788.00000000000;1798.00000000000;1804.00000000000;1795.00000000000;1827.00000000000
Gyro X : 2822.00000000000;2813.00000000000;2812.00000000000;2820.00000000000;2828.00000000000;2801.00000000000;2820.00000000000;2836.00000000000;2808.00000000000;2800.00000000000;2802.00000000000;2814.00000000000;2816.00000000000;2818.00000000000;2789.00000000000;2820.00000000000;2799.00000000000;2819.00000000000;2797.00000000000;2828.00000000000;2834.00000000000;2822.00000000000;2837.00000000000;2830.00000000000;2838.00000000000;2833.00000000000;2821.00000000000;2831.00000000000;2836.00000000000;2823.00000000000;2853.00000000000;2817.00000000000;2837.00000000000;2817.00000000000;2810.00000000000;2808.00000000000;2818.00000000000;2821.00000000000;2850.00000000000;2809.00000000000;2816.00000000000;2818.00000000000;2825.00000000000;2826.00000000000;2809.00000000000;2807.00000000000;2851.00000000000;2808.00000000000;2852.00000000000;2816.00000000000;2830.00000000000;2823.00000000000;2822.00000000000;2828.00000000000;2844.00000000000;2842.00000000000;2831.00000000000;2822.00000000000;2850.00000000000;2845.00000000000;2868.00000000000;2877.00000000000;2919.00000000000;2919.00000000000;3007.00000000000;3139.00000000000;3172.00000000000;3143.00000000000;3176.00000000000;3271.00000000000;3193.00000000000;3202.00000000000;3163.00000000000;3083.00000000000;2939.00000000000;2734.00000000000;2425.00000000000;2094.00000000000;1856.00000000000;1551.00000000000;1370.00000000000;1368.00000000000;1294.00000000000;1351.00000000000;1440.00000000000;1529.00000000000;1527.00000000000;1595.00000000000;1712.00000000000;1794.00000000000;1788.00000000000;1780.00000000000;1719.00000000000;1733.00000000000;1705.00000000000;1714.00000000000;1658.00000000000;1647.00000000000;1674.00000000000;1842.00000000000;1976.00000000000;2029.00000000000;2087.00000000000;2178.00000000000;2308.00000000000;2396.00000000000;2547.00000000000;2649.00000000000;2802.00000000000;2990.00000000000;3122.00000000000;3197.00000000000;3210.00000000000;3087.00000000000;3000.00000000000;2931.00000000000;2914.00000000000;2951.00000000000;2980.00000000000;2972.00000000000;2921.00000000000;2887.00000000000;2854.00000000000;2852.00000000000;2820.00000000000;2835.00000000000;2863.00000000000;2837.00000000000;2827.00000000000;2802.00000000000;2805.00000000000;2793.00000000000;2800.00000000000;2784.00000000000;2802.00000000000;2808.00000000000;2825.00000000000;2801.00000000000;2809.00000000000;2802.00000000000;2840.00000000000;2834.00000000000;2826.00000000000;2821.00000000000;2837.00000000000;2843.00000000000;2840.00000000000;2833.00000000000;2819.00000000000;2811.00000000000
Gyro Y : 1768.00000000000;1788.00000000000;1765.00000000000;1769.00000000000;1766.00000000000;1775.00000000000;1755.00000000000;1770.00000000000;1786.00000000000;1750.00000000000;1763.00000000000;1790.00000000000;1778.00000000000;1778.00000000000;1776.00000000000;1789.00000000000;1793.00000000000;1754.00000000000;1774.00000000000;1768.00000000000;1767.00000000000;1766.00000000000;1751.00000000000;1763.00000000000;1770.00000000000;1768.00000000000;1779.00000000000;1756.00000000000;1779.00000000000;1766.00000000000;1765.00000000000;1765.00000000000;1749.00000000000;1780.00000000000;1759.00000000000;1774.00000000000;1755.00000000000;1769.00000000000;1781.00000000000;1753.00000000000;1756.00000000000;1784.00000000000;1759.00000000000;1768.00000000000;1760.00000000000;1757.00000000000;1748.00000000000;1781.00000000000;1779.00000000000;1771.00000000000;1769.00000000000;1757.00000000000;1766.00000000000;1766.00000000000;1773.00000000000;1777.00000000000;1774.00000000000;1777.00000000000;1788.00000000000;1788.00000000000;1765.00000000000;1719.00000000000;1668.00000000000;1633.00000000000;1566.00000000000;1512.00000000000;1463.00000000000;1431.00000000000;1383.00000000000;1453.00000000000;1529.00000000000;1640.00000000000;1751.00000000000;1895.00000000000;2094.00000000000;2292.00000000000;2501.00000000000;2598.00000000000;2570.00000000000;2565.00000000000;2526.00000000000;2466.00000000000;2410.00000000000;2323.00000000000;2275.00000000000;2259.00000000000;2221.00000000000;2143.00000000000;2064.00000000000;2102.00000000000;2127.00000000000;2102.00000000000;2131.00000000000;2146.00000000000;2161.00000000000;2203.00000000000;2261.00000000000;2301.00000000000;2267.00000000000;2219.00000000000;2214.00000000000;2286.00000000000;2305.00000000000;2168.00000000000;2030.00000000000;2009.00000000000;1999.00000000000;1855.00000000000;1710.00000000000;1788.00000000000;1745.00000000000;1642.00000000000;1658.00000000000;1604.00000000000;1575.00000000000;1540.00000000000;1538.00000000000;1529.00000000000;1576.00000000000;1611.00000000000;1632.00000000000;1644.00000000000;1657.00000000000;1709.00000000000;1715.00000000000;1716.00000000000;1731.00000000000;1741.00000000000;1727.00000000000;1751.00000000000;1756.00000000000;1741.00000000000;1753.00000000000;1749.00000000000;1753.00000000000;1739.00000000000;1754.00000000000;1747.00000000000;1754.00000000000;1726.00000000000;1729.00000000000;1730.00000000000;1730.00000000000;1731.00000000000;1704.00000000000;1727.00000000000;1734.00000000000;1732.00000000000;1725.00000000000;1728.00000000000
Gyro Z : 1872.00000000000;1852.00000000000;1861.00000000000;1855.00000000000;1875.00000000000;1865.00000000000;1852.00000000000;1862.00000000000;1850.00000000000;1869.00000000000;1869.00000000000;1875.00000000000;1870.00000000000;1877.00000000000;1863.00000000000;1880.00000000000;1850.00000000000;1857.00000000000;1874.00000000000;1846.00000000000;1875.00000000000;1873.00000000000;1859.00000000000;1870.00000000000;1873.00000000000;1868.00000000000;1872.00000000000;1877.00000000000;1879.00000000000;1873.00000000000;1866.00000000000;1842.00000000000;1874.00000000000;1861.00000000000;1855.00000000000;1853.00000000000;1861.00000000000;1860.00000000000;1845.00000000000;1867.00000000000;1851.00000000000;1845.00000000000;1876.00000000000;1875.00000000000;1846.00000000000;1862.00000000000;1865.00000000000;1846.00000000000;1871.00000000000;1863.00000000000;1868.00000000000;1898.00000000000;1871.00000000000;1893.00000000000;1867.00000000000;1870.00000000000;1878.00000000000;1886.00000000000;1897.00000000000;1914.00000000000;1913.00000000000;1888.00000000000;1924.00000000000;1891.00000000000;1869.00000000000;1846.00000000000;1793.00000000000;1758.00000000000;1677.00000000000;1675.00000000000;1713.00000000000;1716.00000000000;1771.00000000000;1837.00000000000;1949.00000000000;2043.00000000000;2156.00000000000;2229.00000000000;2255.00000000000;2374.00000000000;2491.00000000000;2572.00000000000;2623.00000000000;2667.00000000000;2742.00000000000;2726.00000000000;2755.00000000000;2738.00000000000;2798.00000000000;2851.00000000000;2839.00000000000;2816.00000000000;2827.00000000000;2821.00000000000;2813.00000000000;2819.00000000000;2800.00000000000;2753.00000000000;2698.00000000000;2693.00000000000;2598.00000000000;2500.00000000000;2365.00000000000;2204.00000000000;2122.00000000000;2043.00000000000;1894.00000000000;1759.00000000000;1733.00000000000;1694.00000000000;1547.00000000000;1435.00000000000;1404.00000000000;1396.00000000000;1447.00000000000;1524.00000000000;1517.00000000000;1526.00000000000;1572.00000000000;1629.00000000000;1646.00000000000;1654.00000000000;1681.00000000000;1716.00000000000;1763.00000000000;1781.00000000000;1792.00000000000;1828.00000000000;1821.00000000000;1797.00000000000;1832.00000000000;1831.00000000000;1841.00000000000;1825.00000000000;1797.00000000000;1806.00000000000;1805.00000000000;1813.00000000000;1795.00000000000;1794.00000000000;1786.00000000000;1784.00000000000;1788.00000000000;1808.00000000000;1770.00000000000;1788.00000000000;1798.00000000000;1804.00000000000;1795.00000000000;1827.00000000000
