COMMAND 3 SAMPLE 1
Accel X : 2840.00000000000;2845.00000000000;2846.00000000000;2843.00000000000;2841.00000000000;2844.00000000000;2840.00000000000;2816.00000000000;2838.00000000000;2820.00000000000;2825.00000000000;2851.00000000000;2809.00000000000;2861.00000000000;2837.00000000000;2825.00000000000;2827.00000000000;2859.00000000000;2839.00000000000;2834.00000000000;2847.00000000000;2839.00000000000;2839.00000000000;2821.00000000000;2842.00000000000;2859.00000000000;2844.00000000000;2846.00000000000;2840.00000000000;2831.00000000000;2828.00000000000;2832.00000000000;2824.00000000000;2833.00000000000;2835.00000000000;2845.00000000000;2829.00000000000;2839.00000000000;2861.00000000000;2851.00000000000;2842.00000000000;2853.00000000000;2846.00000000000;2836.00000000000;2853.00000000000;2851.00000000000;2857.00000000000;2845.00000000000;2875.00000000000;2867.00000000000;2830.00000000000;2844.00000000000;2839.00000000000;2829.00000000000;2827.00000000000;2835.00000000000;2828.00000000000;2818.00000000000;2821.00000000000;2834.00000000000;2839.00000000000;2839.00000000000;2866.00000000000;2849.00000000000;2857.00000000000;2947.00000000000;3002.00000000000;3084.00000000000;3235.00000000000;3324.00000000000;3283.00000000000;3188.00000000000;3147.00000000000;3194.00000000000;3184.00000000000;3141.00000000000;3095.00000000000;2883.00000000000;2699.00000000000;2399.00000000000;2102.00000000000;1836.00000000000;1655.00000000000;1697.00000000000;1456.00000000000;1383.00000000000;1404.00000000000;1316.00000000000;1386.00000000000;1519.00000000000;1615.00000000000;1625.00000000000;1598.00000000000;1544.00000000000;1522.00000000000;1489.00000000000;1440.00000000000;1419.00000000000;1404.00000000000;1497.00000000000;1791.00000000000;2068.00000000000;2223.00000000000;2376.00000000000;2497.00000000000;2589.00000000000;2676.00000000000;2690.00000000000;2676.00000000000;2796.00000000000;2891.00000000000;2931.00000000000;3018.00000000000;3070.00000000000;3106.00000000000;3059.00000000000;3005.00000000000;2935.00000000000;2913.00000000000;2927.00000000000;2935.00000000000;2944.00000000000;2923.00000000000;2909.00000000000;2878.00000000000;2830.00000000000;2840.00000000000;2819.00000000000;2815.00000000000;2805.00000000000;2786.00000000000;2790.00000000000;2796.00000000000;2794.00000000000;2813.00000000000;2803.00000000000;2842.00000000000;2832.00000000000;2831.00000000000;2847.00000000000;2849.00000000000;2873.00000000000;2873.00000000000;2848.00000000000;2826.00000000000;2815.00000000000;2817.00000000000;2823.00000000000;2834.00000000000;2815.00000000000
Accel Y : 1780.00000000000;1761.00000000000;1759.00000000000;1776.00000000000;1785.00000000000;1769.00000000000;1760.00000000000;1768.00000000000;1782.00000000000;1776.00000000000;1759.00000000000;1763.00000000000;1767.00000000000;1787.00000000000;1771.00000000000;1763.00000000000;1765.00000000000;1757.00000000000;1771.00000000000;1770.00000000000;1773.00000000000;1761.00000000000;1777.00000000000;1780.00000000000;1765.00000000000;1779.00000000000;1754.00000000000;1753.00000000000;1770.00000000000;1784.00000000000;1758.00000000000;1765.00000000000;1782.00000000000;1775.00000000000;1791.00000000000;1769.00000000000;1759.00000000000;1770.00000000000;1789.00000000000;1767.00000000000;1767.00000000000;1758.00000000000;1760.00000000000;1753.00000000000;1772.00000000000;1790.00000000000;1781.00000000000;1772.00000000000;1777.00000000000;1774.00000000000;1781.00000000000;1771.00000000000;1750.00000000000;1763.00000000000;1791.00000000000;1782.00000000000;1776.00000000000;1775.00000000000;1774.00000000000;1759.00000000000;1765.00000000000;1766.00000000000;1744.00000000000;1768.00000000000;1746.00000000000;1731.00000000000;1696.00000000000;1661.00000000000;1587.00000000000;1519.00000000000;1508.00000000000;1532.00000000000;1541.00000000000;1618.00000000000;1711.00000000000;1817.00000000000;1915.00000000000;2111.00000000000;2247.00000000000;2430.00000000000;2490.00000000000;2407.00000000000;2385.00000000000;2465.00000000000;2411.00000000000;2303.00000000000;2309.00000000000;2260.00000000000;2247.00000000000;2183.00000000000;2184.00000000000;2165.00000000000;2201.00000000000;2242.00000000000;2243.00000000000;2248.00000000000;2322.00000000000;2349.00000000000;2399.00000000000;2387.00000000000;2430.00000000000;2453.00000000000;2425.00000000000;2363.00000000000;2296.00000000000;2196.00000000000;2054.00000000000;1881.00000000000;1715.00000000000;1626.00000000000;1589.00000000000;1653.00000000000;1667.00000000000;1640.00000000000;1558.00000000000;1575.00000000000;1571.00000000000;1578.00000000000;1568.00000000000;1575.00000000000;1607.00000000000;1627.00000000000;1664.00000000000;1702.00000000000;1726.00000000000;1741.00000000000;1763.00000000000;1765.00000000000;1776.00000000000;1797.00000000000;1751.00000000000;1741.00000000000;1724.00000000000;1742.00000000000;1750.00000000000;1745.00000000000;1734.00000000000;1742.00000000000;1731.00000000000;1720.00000000000;1746.00000000000;1769.00000000000;1751.00000000000;1741.00000000000;1784.00000000000;1749.00000000000;1795.00000000000;1795.00000000000;1788.00000000000;1792.00000000000
Accel Z : 1761.00000000000;1734.00000000000;1752.00000000000;1735.00000000000;1751.00000000000;1755.00000000000;1754.00000000000;1737.00000000000;1761.00000000000;1748.00000000000;1754.00000000000;1753.00000000000;1720.00000000000;1750.00000000000;1759.00000000000;1746.00000000000;1752.00000000000;1757.00000000000;1743.00000000000;1737.00000000000;1743.00000000000;1747.00000000000;1762.00000000000;1743.00000000000;1756.00000000000;1758.00000000000;1730.00000000000;1725.00000000000;1741.00000000000;1764.00000000000;1749.00000000000;1735.00000000000;1733.00000000000;1735.00000000000;1754.00000000000;1736.00000000000;1732.00000000000;1748.00000000000;1743.00000000000;1743.00000000000;1752.00000000000;1749.00000000000;1724.00000000000;1743.00000000000;1732.00000000000;1757.00000000000;1733.00000000000;1726.00000000000;1743.00000000000;1752.00000000000;1755.00000000000;1757.00000000000;1781.00000000000;1775.00000000000;1746.00000000000;1740.00000000000;1753.00000000000;1759.00000000000;1736.00000000000;1759.00000000000;1749.00000000000;1745.00000000000;1755.00000000000;1781.00000000000;1829.00000000000;1807.00000000000;1828.00000000000;1783.00000000000;1760.00000000000;1722.00000000000;1763.00000000000;1729.00000000000;1720.00000000000;1778.00000000000;1824.00000000000;1800.00000000000;1891.00000000000;1973.00000000000;2035.00000000000;2229.00000000000;2338.00000000000;2361.00000000000;2311.00000000000;2416.00000000000;2480.00000000000;2571.00000000000;2659.00000000000;2697.00000000000;2689.00000000000;2711.00000000000;2758.00000000000;2837.00000000000;2882.00000000000;2914.00000000000;2878.00000000000;2904.00000000000;2905.00000000000;2871.00000000000;2839.00000000000;2803.00000000000;2670.00000000000;2463.00000000000;2298.00000000000;2179.00000000000;2054.00000000000;1886.00000000000;1731.00000000000;1594.00000000000;1528.00000000000;1454.00000000000;1459.00000000000;1426.00000000000;1381.00000000000;1191.00000000000;1075.00000000000;1102.00000000000;1218.00000000000;1313.00000000000;1402.00000000000;1439.00000000000;1496.00000000000;1521.00000000000;1536.00000000000;1592.00000000000;1621.00000000000;1624.00000000000;1652.00000000000;1660.00000000000;1668.00000000000;1668.00000000000;1666.00000000000;1671.00000000000;1668.00000000000;1641.00000000000;1656.00000000000;1635.00000000000;1634.00000000000;1645.00000000000;1658.00000000000;1620.00000000000;1629.00000000000;1656.00000000000;1657.00000000000;1619.00000000000;1617.00000000000;1623.00000000000;1626.00000000000;1601.00000000000;1591.00000000000;1576.00000000000
Gyro X : 2840.00000000000;2845.00000000000;2846.00000000000;2843.00000000000;2841.00000000000;2844.00000000000;2840.00000000000;2816.00000000000;2838.00000000000;2820.00000000000;2825.00000000000;2851.00000000000;2809.00000000000;2861.00000000000;2837.00000000000;2825.00000000000;2827.00000000000;2859.00000000000;2839.00000000000;2834.00000000000;2847.00000000000;2839.00000000000;2839.00000000000;2821.00000000000;2842.00000000000;2859.00000000000;2844.00000000000;2846.00000000000;2840.00000000000;2831.00000000000;2828.00000000000;2832.00000000000;2824.00000000000;2833.00000000000;2835.00000000000;2845.00000000000;2829.00000000000;2839.00000000000;2861.00000000000;2851.00000000000;2842.00000000000;2853.00000000000;2846.00000000000;2836.00000000000;2853.00000000000;2851.00000000000;2857.00000000000;2845.00000000000;2875.00000000000;2867.00000000000;2830.00000000000;2844.00000000000;2839.00000000000;2829.00000000000;2827.00000000000;2835.00000000000;2828.00000000000;2818.00000000000;2821.00000000000;2834.00000000000;2839.00000000000;2839.00000000000;2866.00000000000;2849.00000000000;2857.00000000000;2947.00000000000;3002.00000000000;3084.00000000000;3235.00000000000;3324.00000000000;3283.00000000000;3188.00000000000;3147.00000000000;3194.00000000000;3184.00000000000;3141.00000000000;3095.00000000000;2883.00000000000;2699.00000000000;2399.00000000000;2102.00000000000;1836.00000000000;1655.00000000000;1697.00000000000;1456.00000000000;1383.00000000000;1404.00000000000;1316.00000000000;1386.00000000000;1519.00000000000;1615.00000000000;1625.00000000000;1598.00000000000;1544.00000000000;1522.00000000000;1489.00000000000;1440.00000000000;1419.00000000000;1404.00000000000;1497.00000000000;1791.00000000000;2068.00000000000;2223.00000000000;2376.00000000000;2497.00000000000;2589.00000000000;2676.00000000000;2690.00000000000;2676.00000000000;2796.00000000000;2891.00000000000;2931.00000000000;3018.00000000000;3070.00000000000;3106.00000000000;3059.00000000000;3005.00000000000;2935.00000000000;2913.00000000000;2927.00000000000;2935.00000000000;2944.00000000000;2923.00000000000;2909.00000000000;2878.00000000000;2830.00000000000;2840.00000000000;2819.00000000000;2815.00000000000;2805.00000000000;2786.00000000000;2790.00000000000;2796.00000000000;2794.00000000000;2813.00000000000;2803.00000000000;2842.00000000000;2832.00000000000;2831.00000000000;2847.00000000000;2849.00000000000;2873.00000000000;2873.00000000000;2848.00000000000;2826.00000000000;2815.00000000000;2817.00000000000;2823.00000000000;2834.00000000000;2815.00000000000
Gyro Y : 1780.00000000000;1761.00000000000;1759.00000000000;1776.00000000000;1785.00000000000;1769.00000000000;1760.00000000000;1768.00000000000;1782.00000000000;1776.00000000000;1759.00000000000;1763.00000000000;1767.00000000000;1787.00000000000;1771.00000000000;1763.00000000000;1765.00000000000;1757.00000000000;1771.00000000000;1770.00000000000;1773.00000000000;1761.00000000000;1777.00000000000;1780.00000000000;1765.00000000000;1779.00000000000;1754.00000000000;1753.00000000000;1770.00000000000;1784.00000000000;1758.00000000000;1765.00000000000;1782.00000000000;1775.00000000000;1791.00000000000;1769.00000000000;1759.00000000000;1770.00000000000;1789.00000000000;1767.00000000000;1767.00000000000;1758.00000000000;1760.00000000000;1753.00000000000;1772.00000000000;1790.00000000000;1781.00000000000;1772.00000000000;1777.00000000000;1774.00000000000;1781.00000000000;1771.00000000000;1750.00000000000;1763.00000000000;1791.00000000000;1782.00000000000;1776.00000000000;1775.00000000000;1774.00000000000;1759.00000000000;1765.00000000000;1766.00000000000;1744.00000000000;1768.00000000000;1746.00000000000;1731.00000000000;1696.00000000000;1661.00000000000;1587.00000000000;1519.00000000000;1508.00000000000;1532.00000000000;1541.00000000000;1618.00000000000;1711.00000000000;1817.00000000000;1915.00000000000;2111.00000000000;2247.00000000000;2430.00000000000;2490.00000000000;2407.00000000000;2385.00000000000;2465.00000000000;2411.00000000000;2303.00000000000;2309.00000000000;2260.00000000000;2247.00000000000;2183.00000000000;2184.00000000000;2165.00000000000;2201.00000000000;2242.00000000000;2243.00000000000;2248.00000000000;2322.00000000000;2349.00000000000;2399.00000000000;2387.00000000000;2430.00000000000;2453.00000000000;2425.00000000000;2363.00000000000;2296.00000000000;2196.00000000000;2054.00000000000;1881.00000000000;1715.00000000000;1626.00000000000;1589.00000000000;1653.00000000000;1667.00000000000;1640.00000000000;1558.00000000000;1575.00000000000;1571.00000000000;1578.00000000000;1568.00000000000;1575.00000000000;1607.00000000000;1627.00000000000;1664.00000000000;1702.00000000000;1726.00000000000;1741.00000000000;1763.00000000000;1765.00000000000;1776.00000000000;1797.00000000000;1751.00000000000;1741.00000000000;1724.00000000000;1742.00000000000;1750.00000000000;1745.00000000000;1734.00000000000;1742.00000000000;1731.00000000000;1720.00000000000;1746.00000000000;1769.00000000000;1751.00000000000;1741.00000000000;1784.00000000000;1749.00000000000;1795.00000000000;1795.00000000000;1788.00000000000;1792.00000000000
Gyro Z : 1761.00000000000;1734.00000000000;1752.00000000000;1735.00000000000;1751.00000000000;1755.00000000000;1754.00000000000;1737.00000000000;1761.00000000000;1748.00000000000;1754.00000000000;1753.00000000000;1720.00000000000;1750.00000000000;1759.00000000000;1746.00000000000;1752.00000000000;1757.00000000000;1743.00000000000;1737.00000000000;1743.00000000000;1747.00000000000;1762.00000000000;1743.00000000000;1756.00000000000;1758.00000000000;1730.00000000000;1725.00000000000;1741.00000000000;1764.00000000000;1749.00000000000;1735.00000000000;1733.00000000000;1735.00000000000;1754.00000000000;1736.00000000000;1732.00000000000;1748.00000000000;1743.00000000000;1743.00000000000;1752.00000000000;1749.00000000000;1724.00000000000;1743.00000000000;1732.00000000000;1757.00000000000;1733.00000000000;1726.00000000000;1743.00000000000;1752.00000000000;1755.00000000000;1757.00000000000;1781.00000000000;1775.00000000000;1746.00000000000;1740.00000000000;1753.00000000000;1759.00000000000;1736.00000000000;1759.00000000000;1749.00000000000;1745.00000000000;1755.00000000000;1781.00000000000;1829.00000000000;1807.00000000000;1828.00000000000;1783.00000000000;1760.00000000000;1722.00000000000;1763.00000000000;1729.00000000000;1720.00000000000;1778.00000000000;1824.00000000000;1800.00000000000;1891.00000000000;1973.00000000000;2035.00000000000;2229.00000000000;2338.00000000000;2361.00000000000;2311.00000000000;2416.00000000000;2480.00000000000;2571.00000000000;2659.00000000000;2697.00000000000;2689.00000000000;2711.00000000000;2758.00000000000;2837.00000000000;2882.00000000000;2914.00000000000;2878.00000000000;2904.00000000000;2905.00000000000;2871.00000000000;2839.00000000000;2803.00000000000;2670.00000000000;2463.00000000000;2298.00000000000;2179.00000000000;2054.00000000000;1886.00000000000;1731.00000000000;1594.00000000000;1528.00000000000;1454.00000000000;1459.00000000000;1426.00000000000;1381.00000000000;1191.00000000000;1075.00000000000;1102.00000000000;1218.00000000000;1313.00000000000;1402.00000000000;1439.00000000000;1496.00000000000;1521.00000000000;1536.00000000000;1592.00000000000;1621.00000000000;1624.00000000000;1652.00000000000;1660.00000000000;1668.00000000000;1668.00000000000;1666.00000000000;1671.00000000000;1668.00000000000;1641.00000000000;1656.00000000000;1635.00000000000;1634.00000000000;1645.00000000000;1658.00000000000;1620.00000000000;1629.00000000000;1656.00000000000;1657.00000000000;1619.00000000000;1617.00000000000;1623.00000000000;1626.00000000000;1601.00000000000;1591.00000000000;1576.00000000000
