COMMAND 5 SAMPLE 1
Accel X : 2834.00000000000;2805.00000000000;2827.00000000000;2810.00000000000;2823.00000000000;2820.00000000000;2798.00000000000;2816.00000000000;2796.00000000000;2799.00000000000;2803.00000000000;2806.00000000000;2800.00000000000;2835.00000000000;2824.00000000000;2854.00000000000;2819.00000000000;2813.00000000000;2823.00000000000;2828.00000000000;2827.00000000000;2829.00000000000;2822.00000000000;2795.00000000000;2822.00000000000;2777.00000000000;2804.00000000000;2832.00000000000;2815.00000000000;2816.00000000000;2835.00000000000;2795.00000000000;2800.00000000000;2793.00000000000;2806.00000000000;2806.00000000000;2789.00000000000;2810.00000000000;2821.00000000000;2803.00000000000;2794.00000000000;2817.00000000000;2803.00000000000;2811.00000000000;2800.00000000000;2815.00000000000;2794.00000000000;2810.00000000000;2790.00000000000;2813.00000000000;2787.00000000000;2801.00000000000;2811.00000000000;2807.00000000000;2801.00000000000;2785.00000000000;2774.00000000000;2717.00000000000;2767.00000000000;2841.00000000000;2758.00000000000;2503.00000000000;2503.00000000000;2611.00000000000;2650.00000000000;2412.00000000000;2240.00000000000;2121.00000000000;2091.00000000000;2076.00000000000;2080.00000000000;2124.00000000000;2247.00000000000;2429.00000000000;2519.00000000000;2482.00000000000;2384.00000000000;2278.00000000000;2210.00000000000;2250.00000000000;2300.00000000000;2290.00000000000;2195.00000000000;2127.00000000000;2055.00000000000;2100.00000000000;2075.00000000000;2058.00000000000;2083.00000000000;2088.00000000000;2082.00000000000;2081.00000000000;2053.00000000000;2124.00000000000;2194.00000000000;2208.00000000000;2215.00000000000;2208.00000000000;2244.00000000000;2324.00000000000;2314.00000000000;2384.00000000000;2449.00000000000;2454.00000000000;2468.00000000000;2417.00000000000;2406.00000000000;2505.00000000000;2547.00000000000;2633.00000000000;2651.00000000000;2622.00000000000;2496.00000000000;2546.00000000000;2568.00000000000;2629.00000000000;2581.00000000000;2565.00000000000;2558.00000000000;2560.00000000000;2579.00000000000;2610.00000000000;2740.00000000000;2768.00000000000;2769.00000000000;2787.00000000000;2767.00000000000;2804.00000000000;2843.00000000000;2837.00000000000;2824.00000000000;2824.00000000000;2835.00000000000;2842.00000000000;2832.00000000000;2820.00000000000;2854.00000000000;2799.00000000000;2835.00000000000;2848.00000000000;2853.00000000000;2876.00000000000;2862.00000000000;2822.00000000000;2842.00000000000;2844.00000000000;2838.00000000000;2833.00000000000;2832.00000000000;2812.00000000000
Accel Y : 1732.00000000000;1735.00000000000;1715.00000000000;1742.00000000000;1725.00000000000;1743.00000000000;1737.00000000000;1738.00000000000;1735.00000000000;1746.00000000000;1736.00000000000;1740.00000000000;1726.00000000000;1738.00000000000;1730.00000000000;1711.00000000000;1738.00000000000;1730.00000000000;1754.00000000000;1749.00000000000;1724.00000000000;1742.00000000000;1717.00000000000;1724.00000000000;1735.00000000000;1715.00000000000;1738.00000000000;1735.00000000000;1748.00000000000;1711.00000000000;1725.00000000000;1726.00000000000;1719.00000000000;1699.00000000000;1703.00000000000;1711.00000000000;1735.00000000000;1726.00000000000;1721.00000000000;1726.00000000000;1709.00000000000;1736.00000000000;1706.00000000000;1735.00000000000;1732.00000000000;1727.00000000000;1724.00000000000;1729.00000000000;1716.00000000000;1716.00000000000;1706.00000000000;1713.00000000000;1704.00000000000;1711.00000000000;1670.00000000000;1681.00000000000;1695.00000000000;1677.00000000000;1664.00000000000;1644.00000000000;1632.00000000000;1644.00000000000;1584.00000000000;1555.00000000000;1526.00000000000;1494.00000000000;1470.00000000000;1483.00000000000;1550.00000000000;1679.00000000000;1831.00000000000;2110.00000000000;2513.00000000000;2897.00000000000;3148.00000000000;3341.00000000000;3495.00000000000;3513.00000000000;3473.00000000000;3379.00000000000;3353.00000000000;3260.00000000000;3203.00000000000;3111.00000000000;3055.00000000000;3007.00000000000;2975.00000000000;3012.00000000000;3018.00000000000;3037.00000000000;3025.00000000000;3054.00000000000;3087.00000000000;3073.00000000000;3116.00000000000;3156.00000000000;3143.00000000000;3137.00000000000;3154.00000000000;3099.00000000000;3096.00000000000;3073.00000000000;3048.00000000000;2989.00000000000;2921.00000000000;2830.00000000000;2726.00000000000;2607.00000000000;2338.00000000000;2106.00000000000;2020.00000000000;1893.00000000000;1746.00000000000;1705.00000000000;1672.00000000000;1620.00000000000;1611.00000000000;1624.00000000000;1670.00000000000;1653.00000000000;1689.00000000000;1691.00000000000;1719.00000000000;1735.00000000000;1745.00000000000;1764.00000000000;1743.00000000000;1715.00000000000;1696.00000000000;1707.00000000000;1702.00000000000;1680.00000000000;1709.00000000000;1688.00000000000;1680.00000000000;1689.00000000000;1706.00000000000;1707.00000000000;1705.00000000000;1733.00000000000;1739.00000000000;1739.00000000000;1712.00000000000;1742.00000000000;1714.00000000000;1718.00000000000;1739.00000000000;1731.00000000000;1727.00000000000;1731.00000000000
Accel Z : 1884.00000000000;1856.00000000000;1856.00000000000;1870.00000000000;1858.00000000000;1851.00000000000;1859.00000000000;1860.00000000000;1856.00000000000;1850.00000000000;1878.00000000000;1860.00000000000;1896.00000000000;1871.00000000000;1851.00000000000;1872.00000000000;1872.00000000000;1848.00000000000;1875.00000000000;1852.00000000000;1884.00000000000;1858.00000000000;1884.00000000000;1874.00000000000;1878.00000000000;1862.00000000000;1880.00000000000;1857.00000000000;1864.00000000000;1885.00000000000;1860.00000000000;1878.00000000000;1889.00000000000;1857.00000000000;1868.00000000000;1879.00000000000;1858.00000000000;1843.00000000000;1882.00000000000;1889.00000000000;1881.00000000000;1884.00000000000;1865.00000000000;1866.00000000000;1877.00000000000;1851.00000000000;1854.00000000000;1877.00000000000;1884.00000000000;1868.00000000000;1879.00000000000;1853.00000000000;1867.00000000000;1865.00000000000;1857.00000000000;1852.00000000000;1863.00000000000;1862.00000000000;1841.00000000000;1842.00000000000;1926.00000000000;1993.00000000000;1979.00000000000;1932.00000000000;1914.00000000000;1840.00000000000;1817.00000000000;1786.00000000000;1806.00000000000;1813.00000000000;1861.00000000000;1894.00000000000;1989.00000000000;2035.00000000000;2174.00000000000;2289.00000000000;2317.00000000000;2316.00000000000;2288.00000000000;2314.00000000000;2341.00000000000;2337.00000000000;2276.00000000000;2274.00000000000;2231.00000000000;2256.00000000000;2286.00000000000;2270.00000000000;2299.00000000000;2249.00000000000;2235.00000000000;2257.00000000000;2223.00000000000;2288.00000000000;2306.00000000000;2333.00000000000;2339.00000000000;2308.00000000000;2283.00000000000;2293.00000000000;2301.00000000000;2346.00000000000;2300.00000000000;2318.00000000000;2295.00000000000;2248.00000000000;2152.00000000000;1944.00000000000;1819.00000000000;1784.00000000000;1719.00000000000;1681.00000000000;1712.00000000000;1835.00000000000;1859.00000000000;1819.00000000000;1820.00000000000;1809.00000000000;1838.00000000000;1811.00000000000;1775.00000000000;1722.00000000000;1697.00000000000;1701.00000000000;1723.00000000000;1693.00000000000;1686.00000000000;1719.00000000000;1719.00000000000;1729.00000000000;1738.00000000000;1750.00000000000;1779.00000000000;1768.00000000000;1769.00000000000;1743.00000000000;1772.00000000000;1783.00000000000;1778.00000000000;1775.00000000000;1790.00000000000;1766.00000000000;1770.00000000000;1782.00000000000;1772.00000000000;1763.00000000000;1808.00000000000;1788.00000000000;1782.00000000000;1769.00000000000
Gyro X : 2834.00000000000;2805.00000000000;2827.00000000000;2810.00000000000;2823.00000000000;2820.00000000000;2798.00000000000;2816.00000000000;2796.00000000000;2799.00000000000;2803.00000000000;2806.00000000000;2800.00000000000;2835.00000000000;2824.00000000000;2854.00000000000;2819.00000000000;2813.00000000000;2823.00000000000;2828.00000000000;2827.00000000000;2829.00000000000;2822.00000000000;2795.00000000000;2822.00000000000;2777.00000000000;2804.00000000000;2832.00000000000;2815.00000000000;2816.00000000000;2835.00000000000;2795.00000000000;2800.00000000000;2793.00000000000;2806.00000000000;2806.00000000000;2789.00000000000;2810.00000000000;2821.00000000000;2803.00000000000;2794.00000000000;2817.00000000000;2803.00000000000;2811.00000000000;2800.00000000000;2815.00000000000;2794.00000000000;2810.00000000000;2790.00000000000;2813.00000000000;2787.00000000000;2801.00000000000;2811.00000000000;2807.00000000000;2801.00000000000;2785.00000000000;2774.00000000000;2717.00000000000;2767.00000000000;2841.00000000000;2758.00000000000;2503.00000000000;2503.00000000000;2611.00000000000;2650.00000000000;2412.00000000000;2240.00000000000;2121.00000000000;2091.00000000000;2076.00000000000;2080.00000000000;2124.00000000000;2247.00000000000;2429.00000000000;2519.00000000000;2482.00000000000;2384.00000000000;2278.00000000000;2210.00000000000;2250.00000000000;2300.00000000000;2290.00000000000;2195.00000000000;2127.00000000000;2055.00000000000;2100.00000000000;2075.00000000000;2058.00000000000;2083.00000000000;2088.00000000000;2082.00000000000;2081.00000000000;2053.00000000000;2124.00000000000;2194.00000000000;2208.00000000000;2215.00000000000;2208.00000000000;2244.00000000000;2324.00000000000;2314.00000000000;2384.00000000000;2449.00000000000;2454.00000000000;2468.00000000000;2417.00000000000;2406.00000000000;2505.00000000000;2547.00000000000;2633.00000000000;2651.00000000000;2622.00000000000;2496.00000000000;2546.00000000000;2568.00000000000;2629.00000000000;2581.00000000000;2565.00000000000;2558.00000000000;2560.00000000000;2579.00000000000;2610.00000000000;2740.00000000000;2768.00000000000;2769.00000000000;2787.00000000000;2767.00000000000;2804.00000000000;2843.00000000000;2837.00000000000;2824.00000000000;2824.00000000000;2835.00000000000;2842.00000000000;2832.00000000000;2820.00000000000;2854.00000000000;2799.00000000000;2835.00000000000;2848.00000000000;2853.00000000000;2876.00000000000;2862.00000000000;2822.00000000000;2842.00000000000;2844.00000000000;2838.00000000000;2833.00000000000;2832.00000000000;2812.00000000000
Gyro Y : 1732.00000000000;1735.00000000000;1715.00000000000;1742.00000000000;1725.00000000000;1743.00000000000;1737.00000000000;1738.00000000000;1735.00000000000;1746.00000000000;1736.00000000000;1740.00000000000;1726.00000000000;1738.00000000000;1730.00000000000;1711.00000000000;1738.00000000000;1730.00000000000;1754.00000000000;1749.00000000000;1724.00000000000;1742.00000000000;1717.00000000000;1724.00000000000;1735.00000000000;1715.00000000000;1738.00000000000;1735.00000000000;1748.00000000000;1711.00000000000;1725.00000000000;1726.00000000000;1719.00000000000;1699.00000000000;1703.00000000000;1711.00000000000;1735.00000000000;1726.00000000000;1721.00000000000;1726.00000000000;1709.00000000000;1736.00000000000;1706.00000000000;1735.00000000000;1732.00000000000;1727.00000000000;1724.00000000000;1729.00000000000;1716.00000000000;1716.00000000000;1706.00000000000;1713.00000000000;1704.00000000000;1711.00000000000;1670.00000000000;1681.00000000000;1695.00000000000;1677.00000000000;1664.00000000000;1644.00000000000;1632.00000000000;1644.00000000000;1584.00000000000;1555.00000000000;1526.00000000000;1494.00000000000;1470.00000000000;1483.00000000000;1550.00000000000;1679.00000000000;1831.00000000000;2110.00000000000;2513.00000000000;2897.00000000000;3148.00000000000;3341.00000000000;3495.00000000000;3513.00000000000;3473.00000000000;3379.00000000000;3353.00000000000;3260.00000000000;3203.00000000000;3111.00000000000;3055.00000000000;3007.00000000000;2975.00000000000;3012.00000000000;3018.00000000000;3037.00000000000;3025.00000000000;3054.00000000000;3087.00000000000;3073.00000000000;3116.00000000000;3156.00000000000;3143.00000000000;3137.00000000000;3154.00000000000;3099.00000000000;3096.00000000000;3073.00000000000;3048.00000000000;2989.00000000000;2921.00000000000;2830.00000000000;2726.00000000000;2607.00000000000;2338.00000000000;2106.00000000000;2020.00000000000;1893.00000000000;1746.00000000000;1705.00000000000;1672.00000000000;1620.00000000000;1611.00000000000;1624.00000000000;1670.00000000000;1653.00000000000;1689.00000000000;1691.00000000000;1719.00000000000;1735.00000000000;1745.00000000000;1764.00000000000;1743.00000000000;1715.00000000000;1696.00000000000;1707.00000000000;1702.00000000000;1680.00000000000;1709.00000000000;1688.00000000000;1680.00000000000;1689.00000000000;1706.00000000000;1707.00000000000;1705.00000000000;1733.00000000000;1739.00000000000;1739.00000000000;1712.00000000000;1742.00000000000;1714.00000000000;1718.00000000000;1739.00000000000;1731.00000000000;1727.00000000000;1731.00000000000
Gyro Z : 1884.00000000000;1856.00000000000;1856.00000000000;1870.00000000000;1858.00000000000;1851.00000000000;1859.00000000000;1860.00000000000;1856.00000000000;1850.00000000000;1878.00000000000;1860.00000000000;1896.00000000000;1871.00000000000;1851.00000000000;1872.00000000000;1872.00000000000;1848.00000000000;1875.00000000000;1852.00000000000;1884.00000000000;1858.00000000000;1884.00000000000;1874.00000000000;1878.00000000000;1862.00000000000;1880.00000000000;1857.00000000000;1864.00000000000;1885.00000000000;1860.00000000000;1878.00000000000;1889.00000000000;1857.00000000000;1868.00000000000;1879.00000000000;1858.00000000000;1843.00000000000;1882.00000000000;1889.00000000000;1881.00000000000;1884.00000000000;1865.00000000000;1866.00000000000;1877.00000000000;1851.00000000000;1854.00000000000;1877.00000000000;1884.00000000000;1868.00000000000;1879.00000000000;1853.00000000000;1867.00000000000;1865.00000000000;1857.00000000000;1852.00000000000;1863.00000000000;1862.00000000000;1841.00000000000;1842.00000000000;1926.00000000000;1993.00000000000;1979.00000000000;1932.00000000000;1914.00000000000;1840.00000000000;1817.00000000000;1786.00000000000;1806.00000000000;1813.00000000000;1861.00000000000;1894.00000000000;1989.00000000000;2035.00000000000;2174.00000000000;2289.00000000000;2317.00000000000;2316.00000000000;2288.00000000000;2314.00000000000;2341.00000000000;2337.00000000000;2276.00000000000;2274.00000000000;2231.00000000000;2256.00000000000;2286.00000000000;2270.00000000000;2299.00000000000;2249.00000000000;2235.00000000000;2257.00000000000;2223.00000000000;2288.00000000000;2306.00000000000;2333.00000000000;2339.00000000000;2308.00000000000;2283.00000000000;2293.00000000000;2301.00000000000;2346.00000000000;2300.00000000000;2318.00000000000;2295.00000000000;2248.00000000000;2152.00000000000;1944.00000000000;1819.00000000000;1784.00000000000;1719.00000000000;1681.00000000000;1712.00000000000;1835.00000000000;1859.00000000000;1819.00000000000;1820.00000000000;1809.00000000000;1838.00000000000;1811.00000000000;1775.00000000000;1722.00000000000;1697.00000000000;1701.00000000000;1723.00000000000;1693.00000000000;1686.00000000000;1719.00000000000;1719.00000000000;1729.00000000000;1738.00000000000;1750.00000000000;1779.00000000000;1768.00000000000;1769.00000000000;1743.00000000000;1772.00000000000;1783.00000000000;1778.00000000000;1775.00000000000;1790.00000000000;1766.00000000000;1770.00000000000;1782.00000000000;1772.00000000000;1763.00000000000;1808.00000000000;1788.00000000000;1782.00000000000;1769.00000000000
