COMMAND 5 SAMPLE 1
Accel X : 2862.00000000000;2850.00000000000;2860.00000000000;2850.00000000000;2842.00000000000;2847.00000000000;2847.00000000000;2824.00000000000;2839.00000000000;2848.00000000000;2876.00000000000;2864.00000000000;2837.00000000000;2836.00000000000;2856.00000000000;2835.00000000000;2862.00000000000;2853.00000000000;2842.00000000000;2840.00000000000;2846.00000000000;2855.00000000000;2872.00000000000;2840.00000000000;2833.00000000000;2862.00000000000;2833.00000000000;2825.00000000000;2793.00000000000;2819.00000000000;2815.00000000000;2789.00000000000;2812.00000000000;2826.00000000000;2827.00000000000;2805.00000000000;2821.00000000000;2834.00000000000;2815.00000000000;2860.00000000000;2848.00000000000;2831.00000000000;2811.00000000000;2821.00000000000;2795.00000000000;2780.00000000000;2797.00000000000;2785.00000000000;2776.00000000000;2781.00000000000;2796.00000000000;2781.00000000000;2542.00000000000;2476.00000000000;2344.00000000000;2203.00000000000;2165.00000000000;2110.00000000000;2002.00000000000;2036.00000000000;2046.00000000000;2117.00000000000;2323.00000000000;2493.00000000000;2743.00000000000;2747.00000000000;2609.00000000000;2461.00000000000;2353.00000000000;2356.00000000000;2391.00000000000;2380.00000000000;2318.00000000000;2304.00000000000;2225.00000000000;2239.00000000000;2238.00000000000;2219.00000000000;2194.00000000000;2234.00000000000;2234.00000000000;2285.00000000000;2307.00000000000;2305.00000000000;2328.00000000000;2316.00000000000;2346.00000000000;2362.00000000000;2384.00000000000;2432.00000000000;2501.00000000000;2613.00000000000;2673.00000000000;2618.00000000000;2544.00000000000;2511.00000000000;2669.00000000000;2687.00000000000;2647.00000000000;2655.00000000000;2709.00000000000;2697.00000000000;2617.00000000000;2648.00000000000;2630.00000000000;2603.00000000000;2626.00000000000;2664.00000000000;2652.00000000000;2667.00000000000;2721.00000000000;2761.00000000000;2713.00000000000;2767.00000000000;2827.00000000000;2802.00000000000;2814.00000000000;2828.00000000000;2759.00000000000;2804.00000000000;2847.00000000000;2868.00000000000;2849.00000000000;2826.00000000000;2839.00000000000;2837.00000000000;2851.00000000000;2862.00000000000;2842.00000000000;2839.00000000000;2812.00000000000;2825.00000000000;2800.00000000000;2840.00000000000;2835.00000000000;2810.00000000000;2832.00000000000;2804.00000000000;2807.00000000000;2797.00000000000;2788.00000000000;2832.00000000000;2811.00000000000;2819.00000000000;2862.00000000000;2836.00000000000;2831.00000000000;2825.00000000000;2833.00000000000;2829.00000000000
Accel Y : 1891.00000000000;1918.00000000000;1916.00000000000;1877.00000000000;1862.00000000000;1851.00000000000;1847.00000000000;1849.00000000000;1861.00000000000;1839.00000000000;1837.00000000000;1828.00000000000;1835.00000000000;1809.00000000000;1812.00000000000;1825.00000000000;1839.00000000000;1866.00000000000;1837.00000000000;1847.00000000000;1880.00000000000;1843.00000000000;1847.00000000000;1852.00000000000;1839.00000000000;1841.00000000000;1834.00000000000;1806.00000000000;1813.00000000000;1827.00000000000;1817.00000000000;1810.00000000000;1819.00000000000;1824.00000000000;1817.00000000000;1813.00000000000;1816.00000000000;1808.00000000000;1801.00000000000;1807.00000000000;1779.00000000000;1809.00000000000;1805.00000000000;1787.00000000000;1787.00000000000;1758.00000000000;1750.00000000000;1747.00000000000;1735.00000000000;1735.00000000000;1732.00000000000;1711.00000000000;1660.00000000000;1657.00000000000;1638.00000000000;1653.00000000000;1650.00000000000;1685.00000000000;1714.00000000000;1809.00000000000;1952.00000000000;2142.00000000000;2597.00000000000;2915.00000000000;3286.00000000000;3424.00000000000;3421.00000000000;3346.00000000000;3226.00000000000;3187.00000000000;3138.00000000000;3121.00000000000;3058.00000000000;3023.00000000000;2973.00000000000;2939.00000000000;2928.00000000000;2928.00000000000;2957.00000000000;3015.00000000000;3005.00000000000;3038.00000000000;3001.00000000000;3034.00000000000;3034.00000000000;3017.00000000000;3011.00000000000;2997.00000000000;2962.00000000000;2929.00000000000;2901.00000000000;2841.00000000000;2789.00000000000;2693.00000000000;2570.00000000000;2487.00000000000;2313.00000000000;2120.00000000000;2047.00000000000;1951.00000000000;1902.00000000000;1860.00000000000;1822.00000000000;1815.00000000000;1818.00000000000;1821.00000000000;1809.00000000000;1811.00000000000;1809.00000000000;1798.00000000000;1790.00000000000;1811.00000000000;1814.00000000000;1794.00000000000;1813.00000000000;1795.00000000000;1773.00000000000;1752.00000000000;1757.00000000000;1775.00000000000;1758.00000000000;1770.00000000000;1772.00000000000;1761.00000000000;1745.00000000000;1776.00000000000;1791.00000000000;1803.00000000000;1792.00000000000;1776.00000000000;1785.00000000000;1796.00000000000;1809.00000000000;1781.00000000000;1824.00000000000;1809.00000000000;1791.00000000000;1807.00000000000;1787.00000000000;1784.00000000000;1809.00000000000;1808.00000000000;1809.00000000000;1784.00000000000;1795.00000000000;1795.00000000000;1815.00000000000;1784.00000000000;1805.00000000000;1827.00000000000
Accel Z : 1850.00000000000;1867.00000000000;1864.00000000000;1849.00000000000;1865.00000000000;1856.00000000000;1882.00000000000;1890.00000000000;1864.00000000000;1839.00000000000;1859.00000000000;1859.00000000000;1822.00000000000;1835.00000000000;1847.00000000000;1872.00000000000;1863.00000000000;1847.00000000000;1873.00000000000;1857.00000000000;1855.00000000000;1867.00000000000;1848.00000000000;1891.00000000000;1883.00000000000;1895.00000000000;1891.00000000000;1890.00000000000;1902.00000000000;1884.00000000000;1871.00000000000;1884.00000000000;1864.00000000000;1883.00000000000;1857.00000000000;1883.00000000000;1863.00000000000;1880.00000000000;1884.00000000000;1880.00000000000;1877.00000000000;1877.00000000000;1867.00000000000;1902.00000000000;1910.00000000000;1909.00000000000;1914.00000000000;1932.00000000000;1908.00000000000;1920.00000000000;1892.00000000000;1917.00000000000;1952.00000000000;1961.00000000000;1979.00000000000;1912.00000000000;1937.00000000000;1947.00000000000;1957.00000000000;1925.00000000000;1872.00000000000;1901.00000000000;2011.00000000000;2124.00000000000;2305.00000000000;2397.00000000000;2462.00000000000;2471.00000000000;2450.00000000000;2434.00000000000;2436.00000000000;2426.00000000000;2424.00000000000;2351.00000000000;2320.00000000000;2283.00000000000;2297.00000000000;2300.00000000000;2322.00000000000;2354.00000000000;2357.00000000000;2355.00000000000;2331.00000000000;2361.00000000000;2365.00000000000;2334.00000000000;2357.00000000000;2348.00000000000;2344.00000000000;2300.00000000000;2304.00000000000;2272.00000000000;2200.00000000000;2198.00000000000;2127.00000000000;2031.00000000000;1953.00000000000;1925.00000000000;1902.00000000000;1893.00000000000;1865.00000000000;1909.00000000000;1937.00000000000;1938.00000000000;1888.00000000000;1822.00000000000;1820.00000000000;1791.00000000000;1792.00000000000;1820.00000000000;1810.00000000000;1818.00000000000;1819.00000000000;1801.00000000000;1831.00000000000;1842.00000000000;1864.00000000000;1864.00000000000;1855.00000000000;1855.00000000000;1873.00000000000;1872.00000000000;1887.00000000000;1866.00000000000;1865.00000000000;1883.00000000000;1875.00000000000;1863.00000000000;1838.00000000000;1881.00000000000;1874.00000000000;1862.00000000000;1885.00000000000;1889.00000000000;1880.00000000000;1882.00000000000;1879.00000000000;1892.00000000000;1895.00000000000;1905.00000000000;1893.00000000000;1883.00000000000;1879.00000000000;1883.00000000000;1876.00000000000;1903.00000000000;1890.00000000000;1908.00000000000;1896.00000000000;1913.00000000000
Gyro X : 2862.00000000000;2850.00000000000;2860.00000000000;2850.00000000000;2842.00000000000;2847.00000000000;2847.00000000000;2824.00000000000;2839.00000000000;2848.00000000000;2876.00000000000;2864.00000000000;2837.00000000000;2836.00000000000;2856.00000000000;2835.00000000000;2862.00000000000;2853.00000000000;2842.00000000000;2840.00000000000;2846.00000000000;2855.00000000000;2872.00000000000;2840.00000000000;2833.00000000000;2862.00000000000;2833.00000000000;2825.00000000000;2793.00000000000;2819.00000000000;2815.00000000000;2789.00000000000;2812.00000000000;2826.00000000000;2827.00000000000;2805.00000000000;2821.00000000000;2834.00000000000;2815.00000000000;2860.00000000000;2848.00000000000;2831.00000000000;2811.00000000000;2821.00000000000;2795.00000000000;2780.00000000000;2797.00000000000;2785.00000000000;2776.00000000000;2781.00000000000;2796.00000000000;2781.00000000000;2542.00000000000;2476.00000000000;2344.00000000000;2203.00000000000;2165.00000000000;2110.00000000000;2002.00000000000;2036.00000000000;2046.00000000000;2117.00000000000;2323.00000000000;2493.00000000000;2743.00000000000;2747.00000000000;2609.00000000000;2461.00000000000;2353.00000000000;2356.00000000000;2391.00000000000;2380.00000000000;2318.00000000000;2304.00000000000;2225.00000000000;2239.00000000000;2238.00000000000;2219.00000000000;2194.00000000000;2234.00000000000;2234.00000000000;2285.00000000000;2307.00000000000;2305.00000000000;2328.00000000000;2316.00000000000;2346.00000000000;2362.00000000000;2384.00000000000;2432.00000000000;2501.00000000000;2613.00000000000;2673.00000000000;2618.00000000000;2544.00000000000;2511.00000000000;2669.00000000000;2687.00000000000;2647.00000000000;2655.00000000000;2709.00000000000;2697.00000000000;2617.00000000000;2648.00000000000;2630.00000000000;2603.00000000000;2626.00000000000;2664.00000000000;2652.00000000000;2667.00000000000;2721.00000000000;2761.00000000000;2713.00000000000;2767.00000000000;2827.00000000000;2802.00000000000;2814.00000000000;2828.00000000000;2759.00000000000;2804.00000000000;2847.00000000000;2868.00000000000;2849.00000000000;2826.00000000000;2839.00000000000;2837.00000000000;2851.00000000000;2862.00000000000;2842.00000000000;2839.00000000000;2812.00000000000;2825.00000000000;2800.00000000000;2840.00000000000;2835.00000000000;2810.00000000000;2832.00000000000;2804.00000000000;2807.00000000000;2797.00000000000;2788.00000000000;2832.00000000000;2811.00000000000;2819.00000000000;2862.00000000000;2836.00000000000;2831.00000000000;2825.00000000000;2833.00000000000;2829.00000000000
Gyro Y : 1891.00000000000;1918.00000000000;1916.00000000000;1877.00000000000;1862.00000000000;1851.00000000000;1847.00000000000;1849.00000000000;1861.00000000000;1839.00000000000;1837.00000000000;1828.00000000000;1835.00000000000;1809.00000000000;1812.00000000000;1825.00000000000;1839.00000000000;1866.00000000000;1837.00000000000;1847.00000000000;1880.00000000000;1843.00000000000;1847.00000000000;1852.00000000000;1839.00000000000;1841.00000000000;1834.00000000000;1806.00000000000;1813.00000000000;1827.00000000000;1817.00000000000;1810.00000000000;1819.00000000000;1824.00000000000;1817.00000000000;1813.00000000000;1816.00000000000;1808.00000000000;1801.00000000000;1807.00000000000;1779.00000000000;1809.00000000000;1805.00000000000;1787.00000000000;1787.00000000000;1758.00000000000;1750.00000000000;1747.00000000000;1735.00000000000;1735.00000000000;1732.00000000000;1711.00000000000;1660.00000000000;1657.00000000000;1638.00000000000;1653.00000000000;1650.00000000000;1685.00000000000;1714.00000000000;1809.00000000000;1952.00000000000;2142.00000000000;2597.00000000000;2915.00000000000;3286.00000000000;3424.00000000000;3421.00000000000;3346.00000000000;3226.00000000000;3187.00000000000;3138.00000000000;3121.00000000000;3058.00000000000;3023.00000000000;2973.00000000000;2939.00000000000;2928.00000000000;2928.00000000000;2957.00000000000;3015.00000000000;3005.00000000000;3038.00000000000;3001.00000000000;3034.00000000000;3034.00000000000;3017.00000000000;3011.00000000000;2997.00000000000;2962.00000000000;2929.00000000000;2901.00000000000;2841.00000000000;2789.00000000000;2693.00000000000;2570.00000000000;2487.00000000000;2313.00000000000;2120.00000000000;2047.00000000000;1951.00000000000;1902.00000000000;1860.00000000000;1822.00000000000;1815.00000000000;1818.00000000000;1821.00000000000;1809.00000000000;1811.00000000000;1809.00000000000;1798.00000000000;1790.00000000000;1811.00000000000;1814.00000000000;1794.00000000000;1813.00000000000;1795.00000000000;1773.00000000000;1752.00000000000;1757.00000000000;1775.00000000000;1758.00000000000;1770.00000000000;1772.00000000000;1761.00000000000;1745.00000000000;1776.00000000000;1791.00000000000;1803.00000000000;1792.00000000000;1776.00000000000;1785.00000000000;1796.00000000000;1809.00000000000;1781.00000000000;1824.00000000000;1809.00000000000;1791.00000000000;1807.00000000000;1787.00000000000;1784.00000000000;1809.00000000000;1808.00000000000;1809.00000000000;1784.00000000000;1795.00000000000;1795.00000000000;1815.00000000000;1784.00000000000;1805.00000000000;1827.00000000000
Gyro Z : 1850.00000000000;1867.00000000000;1864.00000000000;1849.00000000000;1865.00000000000;1856.00000000000;1882.00000000000;1890.00000000000;1864.00000000000;1839.00000000000;1859.00000000000;1859.00000000000;1822.00000000000;1835.00000000000;1847.00000000000;1872.00000000000;1863.00000000000;1847.00000000000;1873.00000000000;1857.00000000000;1855.00000000000;1867.00000000000;1848.00000000000;1891.00000000000;1883.00000000000;1895.00000000000;1891.00000000000;1890.00000000000;1902.00000000000;1884.00000000000;1871.00000000000;1884.00000000000;1864.00000000000;1883.00000000000;1857.00000000000;1883.00000000000;1863.00000000000;1880.00000000000;1884.00000000000;1880.00000000000;1877.00000000000;1877.00000000000;1867.00000000000;1902.00000000000;1910.00000000000;1909.00000000000;1914.00000000000;1932.00000000000;1908.00000000000;1920.00000000000;1892.00000000000;1917.00000000000;1952.00000000000;1961.00000000000;1979.00000000000;1912.00000000000;1937.00000000000;1947.00000000000;1957.00000000000;1925.00000000000;1872.00000000000;1901.00000000000;2011.00000000000;2124.00000000000;2305.00000000000;2397.00000000000;2462.00000000000;2471.00000000000;2450.00000000000;2434.00000000000;2436.00000000000;2426.00000000000;2424.00000000000;2351.00000000000;2320.00000000000;2283.00000000000;2297.00000000000;2300.00000000000;2322.00000000000;2354.00000000000;2357.00000000000;2355.00000000000;2331.00000000000;2361.00000000000;2365.00000000000;2334.00000000000;2357.00000000000;2348.00000000000;2344.00000000000;2300.00000000000;2304.00000000000;2272.00000000000;2200.00000000000;2198.00000000000;2127.00000000000;2031.00000000000;1953.00000000000;1925.00000000000;1902.00000000000;1893.00000000000;1865.00000000000;1909.00000000000;1937.00000000000;1938.00000000000;1888.00000000000;1822.00000000000;1820.00000000000;1791.00000000000;1792.00000000000;1820.00000000000;1810.00000000000;1818.00000000000;1819.00000000000;1801.00000000000;1831.00000000000;1842.00000000000;1864.00000000000;1864.00000000000;1855.00000000000;1855.00000000000;1873.00000000000;1872.00000000000;1887.00000000000;1866.00000000000;1865.00000000000;1883.00000000000;1875.00000000000;1863.00000000000;1838.00000000000;1881.00000000000;1874.00000000000;1862.00000000000;1885.00000000000;1889.00000000000;1880.00000000000;1882.00000000000;1879.00000000000;1892.00000000000;1895.00000000000;1905.00000000000;1893.00000000000;1883.00000000000;1879.00000000000;1883.00000000000;1876.00000000000;1903.00000000000;1890.00000000000;1908.00000000000;1896.00000000000;1913.00000000000
