COMMAND 1 SAMPLE 1
Accel X : 2832.00000000000;2839.00000000000;2843.00000000000;2836.00000000000;2858.00000000000;2847.00000000000;2836.00000000000;2858.00000000000;2851.00000000000;2839.00000000000;2834.00000000000;2817.00000000000;2831.00000000000;2845.00000000000;2831.00000000000;2828.00000000000;2829.00000000000;2838.00000000000;2838.00000000000;2832.00000000000;2829.00000000000;2840.00000000000;2832.00000000000;2844.00000000000;2845.00000000000;2843.00000000000;2835.00000000000;2840.00000000000;2843.00000000000;2831.00000000000;2823.00000000000;2851.00000000000;2842.00000000000;2828.00000000000;2823.00000000000;2823.00000000000;2822.00000000000;2830.00000000000;2839.00000000000;2836.00000000000;2850.00000000000;2835.00000000000;2825.00000000000;2829.00000000000;2827.00000000000;2832.00000000000;2832.00000000000;2851.00000000000;2861.00000000000;2832.00000000000;2858.00000000000;2832.00000000000;2821.00000000000;2831.00000000000;2829.00000000000;2839.00000000000;2795.00000000000;2792.00000000000;2801.00000000000;2796.00000000000;2800.00000000000;2827.00000000000;2786.00000000000;2715.00000000000;2723.00000000000;2666.00000000000;2774.00000000000;2955.00000000000;2927.00000000000;2910.00000000000;3120.00000000000;3255.00000000000;3069.00000000000;2959.00000000000;2944.00000000000;2937.00000000000;2901.00000000000;2776.00000000000;2727.00000000000;2783.00000000000;2760.00000000000;2643.00000000000;2524.00000000000;2513.00000000000;2580.00000000000;2550.00000000000;2488.00000000000;2533.00000000000;2560.00000000000;2587.00000000000;2666.00000000000;2731.00000000000;2790.00000000000;2825.00000000000;2738.00000000000;2750.00000000000;2887.00000000000;2915.00000000000;2918.00000000000;2825.00000000000;2801.00000000000;2851.00000000000;2883.00000000000;2846.00000000000;2830.00000000000;2857.00000000000;2821.00000000000;2784.00000000000;2721.00000000000;2824.00000000000;2842.00000000000;2895.00000000000;2901.00000000000;2901.00000000000;2899.00000000000;2877.00000000000;2894.00000000000;2924.00000000000;2898.00000000000;2888.00000000000;2904.00000000000;2934.00000000000;2900.00000000000;2875.00000000000;2831.00000000000;2819.00000000000;2850.00000000000;2885.00000000000;2896.00000000000;2829.00000000000;2823.00000000000;2810.00000000000;2837.00000000000;2841.00000000000;2836.00000000000;2812.00000000000;2804.00000000000;2834.00000000000;2857.00000000000;2856.00000000000;2831.00000000000;2815.00000000000;2858.00000000000;2875.00000000000;2851.00000000000;2857.00000000000;2853.00000000000;2836.00000000000;2850.00000000000;2852.00000000000
Accel Y : 1819.00000000000;1803.00000000000;1824.00000000000;1794.00000000000;1786.00000000000;1796.00000000000;1802.00000000000;1797.00000000000;1819.00000000000;1817.00000000000;1791.00000000000;1819.00000000000;1819.00000000000;1812.00000000000;1807.00000000000;1800.00000000000;1829.00000000000;1825.00000000000;1820.00000000000;1817.00000000000;1798.00000000000;1806.00000000000;1804.00000000000;1823.00000000000;1830.00000000000;1815.00000000000;1794.00000000000;1809.00000000000;1821.00000000000;1819.00000000000;1818.00000000000;1801.00000000000;1815.00000000000;1812.00000000000;1802.00000000000;1817.00000000000;1812.00000000000;1790.00000000000;1812.00000000000;1811.00000000000;1808.00000000000;1807.00000000000;1797.00000000000;1798.00000000000;1800.00000000000;1812.00000000000;1812.00000000000;1816.00000000000;1828.00000000000;1801.00000000000;1807.00000000000;1815.00000000000;1806.00000000000;1821.00000000000;1819.00000000000;1800.00000000000;1810.00000000000;1764.00000000000;1725.00000000000;1643.00000000000;1543.00000000000;1479.00000000000;1377.00000000000;1295.00000000000;1209.00000000000;1211.00000000000;1258.00000000000;1305.00000000000;1385.00000000000;1511.00000000000;1626.00000000000;1733.00000000000;1839.00000000000;2033.00000000000;2229.00000000000;2383.00000000000;2603.00000000000;2681.00000000000;2678.00000000000;2695.00000000000;2663.00000000000;2580.00000000000;2442.00000000000;2398.00000000000;2403.00000000000;2358.00000000000;2337.00000000000;2317.00000000000;2347.00000000000;2342.00000000000;2402.00000000000;2424.00000000000;2436.00000000000;2485.00000000000;2516.00000000000;2422.00000000000;2315.00000000000;2268.00000000000;2207.00000000000;2083.00000000000;1986.00000000000;1933.00000000000;1898.00000000000;1768.00000000000;1702.00000000000;1596.00000000000;1603.00000000000;1605.00000000000;1513.00000000000;1475.00000000000;1452.00000000000;1469.00000000000;1519.00000000000;1556.00000000000;1588.00000000000;1595.00000000000;1608.00000000000;1665.00000000000;1694.00000000000;1718.00000000000;1785.00000000000;1785.00000000000;1807.00000000000;1805.00000000000;1828.00000000000;1823.00000000000;1849.00000000000;1852.00000000000;1864.00000000000;1858.00000000000;1842.00000000000;1856.00000000000;1844.00000000000;1868.00000000000;1847.00000000000;1836.00000000000;1836.00000000000;1848.00000000000;1831.00000000000;1833.00000000000;1844.00000000000;1851.00000000000;1834.00000000000;1854.00000000000;1843.00000000000;1864.00000000000;1838.00000000000;1849.00000000000;1838.00000000000;1820.00000000000
Accel Z : 1844.00000000000;1848.00000000000;1851.00000000000;1844.00000000000;1836.00000000000;1817.00000000000;1822.00000000000;1843.00000000000;1832.00000000000;1863.00000000000;1842.00000000000;1845.00000000000;1833.00000000000;1836.00000000000;1842.00000000000;1831.00000000000;1834.00000000000;1829.00000000000;1837.00000000000;1843.00000000000;1844.00000000000;1843.00000000000;1827.00000000000;1848.00000000000;1828.00000000000;1835.00000000000;1843.00000000000;1834.00000000000;1852.00000000000;1835.00000000000;1856.00000000000;1820.00000000000;1833.00000000000;1824.00000000000;1825.00000000000;1837.00000000000;1859.00000000000;1840.00000000000;1831.00000000000;1844.00000000000;1829.00000000000;1828.00000000000;1818.00000000000;1828.00000000000;1848.00000000000;1825.00000000000;1826.00000000000;1853.00000000000;1843.00000000000;1843.00000000000;1832.00000000000;1840.00000000000;1848.00000000000;1819.00000000000;1835.00000000000;1817.00000000000;1822.00000000000;1844.00000000000;1851.00000000000;1834.00000000000;1866.00000000000;1922.00000000000;1964.00000000000;2001.00000000000;2070.00000000000;2082.00000000000;2121.00000000000;2103.00000000000;2048.00000000000;2078.00000000000;1973.00000000000;1927.00000000000;1824.00000000000;1878.00000000000;1902.00000000000;1921.00000000000;1876.00000000000;1822.00000000000;1768.00000000000;1876.00000000000;1937.00000000000;1865.00000000000;1791.00000000000;1869.00000000000;1961.00000000000;1913.00000000000;1871.00000000000;1899.00000000000;1900.00000000000;1891.00000000000;1871.00000000000;1867.00000000000;1841.00000000000;1865.00000000000;1801.00000000000;1757.00000000000;1808.00000000000;1826.00000000000;1778.00000000000;1819.00000000000;1909.00000000000;1955.00000000000;1866.00000000000;1794.00000000000;1848.00000000000;1999.00000000000;1954.00000000000;1910.00000000000;1911.00000000000;1940.00000000000;1956.00000000000;1937.00000000000;1966.00000000000;1938.00000000000;1932.00000000000;1884.00000000000;1886.00000000000;1883.00000000000;1880.00000000000;1849.00000000000;1838.00000000000;1848.00000000000;1842.00000000000;1835.00000000000;1833.00000000000;1832.00000000000;1823.00000000000;1814.00000000000;1822.00000000000;1812.00000000000;1829.00000000000;1819.00000000000;1778.00000000000;1849.00000000000;1850.00000000000;1840.00000000000;1847.00000000000;1852.00000000000;1839.00000000000;1835.00000000000;1813.00000000000;1872.00000000000;1839.00000000000;1831.00000000000;1835.00000000000;1834.00000000000;1849.00000000000;1839.00000000000;1842.00000000000;1828.00000000000
Gyro X : 2832.00000000000;2839.00000000000;2843.00000000000;2836.00000000000;2858.00000000000;2847.00000000000;2836.00000000000;2858.00000000000;2851.00000000000;2839.00000000000;2834.00000000000;2817.00000000000;2831.00000000000;2845.00000000000;2831.00000000000;2828.00000000000;2829.00000000000;2838.00000000000;2838.00000000000;2832.00000000000;2829.00000000000;2840.00000000000;2832.00000000000;2844.00000000000;2845.00000000000;2843.00000000000;2835.00000000000;2840.00000000000;2843.00000000000;2831.00000000000;2823.00000000000;2851.00000000000;2842.00000000000;2828.00000000000;2823.00000000000;2823.00000000000;2822.00000000000;2830.00000000000;2839.00000000000;2836.00000000000;2850.00000000000;2835.00000000000;2825.00000000000;2829.00000000000;2827.00000000000;2832.00000000000;2832.00000000000;2851.00000000000;2861.00000000000;2832.00000000000;2858.00000000000;2832.00000000000;2821.00000000000;2831.00000000000;2829.00000000000;2839.00000000000;2795.00000000000;2792.00000000000;2801.00000000000;2796.00000000000;2800.00000000000;2827.00000000000;2786.00000000000;2715.00000000000;2723.00000000000;2666.00000000000;2774.00000000000;2955.00000000000;2927.00000000000;2910.00000000000;3120.00000000000;3255.00000000000;3069.00000000000;2959.00000000000;2944.00000000000;2937.00000000000;2901.00000000000;2776.00000000000;2727.00000000000;2783.00000000000;2760.00000000000;2643.00000000000;2524.00000000000;2513.00000000000;2580.00000000000;2550.00000000000;2488.00000000000;2533.00000000000;2560.00000000000;2587.00000000000;2666.00000000000;2731.00000000000;2790.00000000000;2825.00000000000;2738.00000000000;2750.00000000000;2887.00000000000;2915.00000000000;2918.00000000000;2825.00000000000;2801.00000000000;2851.00000000000;2883.00000000000;2846.00000000000;2830.00000000000;2857.00000000000;2821.00000000000;2784.00000000000;2721.00000000000;2824.00000000000;2842.00000000000;2895.00000000000;2901.00000000000;2901.00000000000;2899.00000000000;2877.00000000000;2894.00000000000;2924.00000000000;2898.00000000000;2888.00000000000;2904.00000000000;2934.00000000000;2900.00000000000;2875.00000000000;2831.00000000000;2819.00000000000;2850.00000000000;2885.00000000000;2896.00000000000;2829.00000000000;2823.00000000000;2810.00000000000;2837.00000000000;2841.00000000000;2836.00000000000;2812.00000000000;2804.00000000000;2834.00000000000;2857.00000000000;2856.00000000000;2831.00000000000;2815.00000000000;2858.00000000000;2875.00000000000;2851.00000000000;2857.00000000000;2853.00000000000;2836.00000000000;2850.00000000000;2852.00000000000
Gyro Y : 1819.00000000000;1803.00000000000;1824.00000000000;1794.00000000000;1786.00000000000;1796.00000000000;1802.00000000000;1797.00000000000;1819.00000000000;1817.00000000000;1791.00000000000;1819.00000000000;1819.00000000000;1812.00000000000;1807.00000000000;1800.00000000000;1829.00000000000;1825.00000000000;1820.00000000000;1817.00000000000;1798.00000000000;1806.00000000000;1804.00000000000;1823.00000000000;1830.00000000000;1815.00000000000;1794.00000000000;1809.00000000000;1821.00000000000;1819.00000000000;1818.00000000000;1801.00000000000;1815.00000000000;1812.00000000000;1802.00000000000;1817.00000000000;1812.00000000000;1790.00000000000;1812.00000000000;1811.00000000000;1808.00000000000;1807.00000000000;1797.00000000000;1798.00000000000;1800.00000000000;1812.00000000000;1812.00000000000;1816.00000000000;1828.00000000000;1801.00000000000;1807.00000000000;1815.00000000000;1806.00000000000;1821.00000000000;1819.00000000000;1800.00000000000;1810.00000000000;1764.00000000000;1725.00000000000;1643.00000000000;1543.00000000000;1479.00000000000;1377.00000000000;1295.00000000000;1209.00000000000;1211.00000000000;1258.00000000000;1305.00000000000;1385.00000000000;1511.00000000000;1626.00000000000;1733.00000000000;1839.00000000000;2033.00000000000;2229.00000000000;2383.00000000000;2603.00000000000;2681.00000000000;2678.00000000000;2695.00000000000;2663.00000000000;2580.00000000000;2442.00000000000;2398.00000000000;2403.00000000000;2358.00000000000;2337.00000000000;2317.00000000000;2347.00000000000;2342.00000000000;2402.00000000000;2424.00000000000;2436.00000000000;2485.00000000000;2516.00000000000;2422.00000000000;2315.00000000000;2268.00000000000;2207.00000000000;2083.00000000000;1986.00000000000;1933.00000000000;1898.00000000000;1768.00000000000;1702.00000000000;1596.00000000000;1603.00000000000;1605.00000000000;1513.00000000000;1475.00000000000;1452.00000000000;1469.00000000000;1519.00000000000;1556.00000000000;1588.00000000000;1595.00000000000;1608.00000000000;1665.00000000000;1694.00000000000;1718.00000000000;1785.00000000000;1785.00000000000;1807.00000000000;1805.00000000000;1828.00000000000;1823.00000000000;1849.00000000000;1852.00000000000;1864.00000000000;1858.00000000000;1842.00000000000;1856.00000000000;1844.00000000000;1868.00000000000;1847.00000000000;1836.00000000000;1836.00000000000;1848.00000000000;1831.00000000000;1833.00000000000;1844.00000000000;1851.00000000000;1834.00000000000;1854.00000000000;1843.00000000000;1864.00000000000;1838.00000000000;1849.00000000000;1838.00000000000;1820.00000000000
Gyro Z : 1844.00000000000;1848.00000000000;1851.00000000000;1844.00000000000;1836.00000000000;1817.00000000000;1822.00000000000;1843.00000000000;1832.00000000000;1863.00000000000;1842.00000000000;1845.00000000000;1833.00000000000;1836.00000000000;1842.00000000000;1831.00000000000;1834.00000000000;1829.00000000000;1837.00000000000;1843.00000000000;1844.00000000000;1843.00000000000;1827.00000000000;1848.00000000000;1828.00000000000;1835.00000000000;1843.00000000000;1834.00000000000;1852.00000000000;1835.00000000000;1856.00000000000;1820.00000000000;1833.00000000000;1824.00000000000;1825.00000000000;1837.00000000000;1859.00000000000;1840.00000000000;1831.00000000000;1844.00000000000;1829.00000000000;1828.00000000000;1818.00000000000;1828.00000000000;1848.00000000000;1825.00000000000;1826.00000000000;1853.00000000000;1843.00000000000;1843.00000000000;1832.00000000000;1840.00000000000;1848.00000000000;1819.00000000000;1835.00000000000;1817.00000000000;1822.00000000000;1844.00000000000;1851.00000000000;1834.00000000000;1866.00000000000;1922.00000000000;1964.00000000000;2001.00000000000;2070.00000000000;2082.00000000000;2121.00000000000;2103.00000000000;2048.00000000000;2078.00000000000;1973.00000000000;1927.00000000000;1824.00000000000;1878.00000000000;1902.00000000000;1921.00000000000;1876.00000000000;1822.00000000000;1768.00000000000;1876.00000000000;1937.00000000000;1865.00000000000;1791.00000000000;1869.00000000000;1961.00000000000;1913.00000000000;1871.00000000000;1899.00000000000;1900.00000000000;1891.00000000000;1871.00000000000;1867.00000000000;1841.00000000000;1865.00000000000;1801.00000000000;1757.00000000000;1808.00000000000;1826.00000000000;1778.00000000000;1819.00000000000;1909.00000000000;1955.00000000000;1866.00000000000;1794.00000000000;1848.00000000000;1999.00000000000;1954.00000000000;1910.00000000000;1911.00000000000;1940.00000000000;1956.00000000000;1937.00000000000;1966.00000000000;1938.00000000000;1932.00000000000;1884.00000000000;1886.00000000000;1883.00000000000;1880.00000000000;1849.00000000000;1838.00000000000;1848.00000000000;1842.00000000000;1835.00000000000;1833.00000000000;1832.00000000000;1823.00000000000;1814.00000000000;1822.00000000000;1812.00000000000;1829.00000000000;1819.00000000000;1778.00000000000;1849.00000000000;1850.00000000000;1840.00000000000;1847.00000000000;1852.00000000000;1839.00000000000;1835.00000000000;1813.00000000000;1872.00000000000;1839.00000000000;1831.00000000000;1835.00000000000;1834.00000000000;1849.00000000000;1839.00000000000;1842.00000000000;1828.00000000000
