COMMAND 4 SAMPLE 1
Accel X : 2852.00000000000;2839.00000000000;2834.00000000000;2822.00000000000;2821.00000000000;2837.00000000000;2841.00000000000;2840.00000000000;2842.00000000000;2839.00000000000;2830.00000000000;2831.00000000000;2819.00000000000;2853.00000000000;2835.00000000000;2825.00000000000;2804.00000000000;2825.00000000000;2833.00000000000;2809.00000000000;2837.00000000000;2837.00000000000;2826.00000000000;2796.00000000000;2818.00000000000;2836.00000000000;2833.00000000000;2839.00000000000;2841.00000000000;2839.00000000000;2840.00000000000;2812.00000000000;2834.00000000000;2846.00000000000;2834.00000000000;2856.00000000000;2846.00000000000;2858.00000000000;2828.00000000000;2834.00000000000;2837.00000000000;2840.00000000000;2815.00000000000;2846.00000000000;2840.00000000000;2846.00000000000;2874.00000000000;2901.00000000000;2994.00000000000;3118.00000000000;3260.00000000000;3490.00000000000;3651.00000000000;3745.00000000000;3741.00000000000;3598.00000000000;3438.00000000000;3268.00000000000;3045.00000000000;2845.00000000000;2661.00000000000;2490.00000000000;2271.00000000000;2136.00000000000;1959.00000000000;1871.00000000000;1726.00000000000;1691.00000000000;1689.00000000000;1678.00000000000;1702.00000000000;1721.00000000000;1747.00000000000;1744.00000000000;1710.00000000000;1782.00000000000;1826.00000000000;1834.00000000000;1811.00000000000;1819.00000000000;1783.00000000000;1778.00000000000;1786.00000000000;1779.00000000000;1791.00000000000;1795.00000000000;1809.00000000000;1863.00000000000;2028.00000000000;2158.00000000000;2144.00000000000;2215.00000000000;2350.00000000000;2440.00000000000;2499.00000000000;2624.00000000000;2815.00000000000;2992.00000000000;3053.00000000000;3258.00000000000;3500.00000000000;3681.00000000000;3727.00000000000;3705.00000000000;3602.00000000000;3502.00000000000;3417.00000000000;3269.00000000000;3146.00000000000;3048.00000000000;2978.00000000000;2936.00000000000;2925.00000000000;2878.00000000000;2846.00000000000;2853.00000000000;2800.00000000000;2795.00000000000;2805.00000000000;2795.00000000000;2811.00000000000;2787.00000000000;2815.00000000000;2803.00000000000;2788.00000000000;2816.00000000000;2837.00000000000;2852.00000000000;2872.00000000000;2848.00000000000;2878.00000000000;2887.00000000000;2876.00000000000;2904.00000000000;2871.00000000000;2866.00000000000;2859.00000000000;2857.00000000000;2863.00000000000;2841.00000000000;2844.00000000000;2833.00000000000;2835.00000000000;2846.00000000000;2847.00000000000;2846.00000000000;2831.00000000000;2851.00000000000;2833.00000000000;2816.00000000000
Accel Y : 1795.00000000000;1785.00000000000;1794.00000000000;1791.00000000000;1790.00000000000;1786.00000000000;1794.00000000000;1787.00000000000;1813.00000000000;1807.00000000000;1788.00000000000;1797.00000000000;1768.00000000000;1788.00000000000;1800.00000000000;1788.00000000000;1805.00000000000;1786.00000000000;1795.00000000000;1792.00000000000;1801.00000000000;1817.00000000000;1811.00000000000;1783.00000000000;1797.00000000000;1818.00000000000;1784.00000000000;1801.00000000000;1813.00000000000;1803.00000000000;1793.00000000000;1792.00000000000;1772.00000000000;1802.00000000000;1824.00000000000;1799.00000000000;1821.00000000000;1801.00000000000;1801.00000000000;1815.00000000000;1807.00000000000;1803.00000000000;1822.00000000000;1819.00000000000;1816.00000000000;1773.00000000000;1763.00000000000;1727.00000000000;1655.00000000000;1556.00000000000;1412.00000000000;1379.00000000000;1341.00000000000;1354.00000000000;1363.00000000000;1380.00000000000;1448.00000000000;1513.00000000000;1636.00000000000;1664.00000000000;1743.00000000000;1809.00000000000;1817.00000000000;1801.00000000000;1811.00000000000;1796.00000000000;1746.00000000000;1677.00000000000;1644.00000000000;1574.00000000000;1542.00000000000;1486.00000000000;1463.00000000000;1391.00000000000;1327.00000000000;1305.00000000000;1310.00000000000;1297.00000000000;1270.00000000000;1293.00000000000;1318.00000000000;1330.00000000000;1422.00000000000;1484.00000000000;1548.00000000000;1546.00000000000;1527.00000000000;1532.00000000000;1598.00000000000;1647.00000000000;1719.00000000000;1708.00000000000;1675.00000000000;1666.00000000000;1806.00000000000;1841.00000000000;1772.00000000000;1710.00000000000;1776.00000000000;1791.00000000000;1707.00000000000;1647.00000000000;1655.00000000000;1672.00000000000;1691.00000000000;1712.00000000000;1737.00000000000;1745.00000000000;1798.00000000000;1834.00000000000;1823.00000000000;1899.00000000000;1901.00000000000;1931.00000000000;1931.00000000000;1956.00000000000;1969.00000000000;1972.00000000000;1972.00000000000;1995.00000000000;1962.00000000000;1972.00000000000;1946.00000000000;1933.00000000000;1928.00000000000;1935.00000000000;1924.00000000000;1938.00000000000;1915.00000000000;1896.00000000000;1894.00000000000;1934.00000000000;1896.00000000000;1912.00000000000;1917.00000000000;1917.00000000000;1927.00000000000;1939.00000000000;1906.00000000000;1907.00000000000;1929.00000000000;1899.00000000000;1926.00000000000;1938.00000000000;1915.00000000000;1922.00000000000;1884.00000000000;1912.00000000000;1922.00000000000;1935.00000000000
Accel Z : 1866.00000000000;1834.00000000000;1871.00000000000;1866.00000000000;1869.00000000000;1859.00000000000;1844.00000000000;1841.00000000000;1839.00000000000;1849.00000000000;1848.00000000000;1847.00000000000;1875.00000000000;1864.00000000000;1865.00000000000;1871.00000000000;1865.00000000000;1860.00000000000;1851.00000000000;1846.00000000000;1839.00000000000;1859.00000000000;1865.00000000000;1858.00000000000;1865.00000000000;1846.00000000000;1875.00000000000;1848.00000000000;1840.00000000000;1836.00000000000;1840.00000000000;1855.00000000000;1874.00000000000;1820.00000000000;1835.00000000000;1836.00000000000;1848.00000000000;1851.00000000000;1862.00000000000;1873.00000000000;1853.00000000000;1845.00000000000;1878.00000000000;1860.00000000000;1853.00000000000;1856.00000000000;1849.00000000000;1856.00000000000;1866.00000000000;1909.00000000000;1984.00000000000;2103.00000000000;2110.00000000000;2121.00000000000;2151.00000000000;2158.00000000000;2175.00000000000;2119.00000000000;2043.00000000000;1965.00000000000;1917.00000000000;1883.00000000000;1814.00000000000;1771.00000000000;1793.00000000000;1769.00000000000;1765.00000000000;1770.00000000000;1788.00000000000;1824.00000000000;1875.00000000000;1905.00000000000;1961.00000000000;1955.00000000000;1957.00000000000;1983.00000000000;2028.00000000000;2019.00000000000;2039.00000000000;2009.00000000000;2026.00000000000;2001.00000000000;1980.00000000000;1959.00000000000;1966.00000000000;1956.00000000000;1835.00000000000;1845.00000000000;1899.00000000000;1934.00000000000;1879.00000000000;1882.00000000000;1903.00000000000;1882.00000000000;1903.00000000000;1961.00000000000;1982.00000000000;1897.00000000000;1927.00000000000;1937.00000000000;1924.00000000000;1979.00000000000;2057.00000000000;2114.00000000000;2081.00000000000;2083.00000000000;2116.00000000000;2063.00000000000;2044.00000000000;2001.00000000000;1943.00000000000;1944.00000000000;1920.00000000000;1886.00000000000;1861.00000000000;1842.00000000000;1809.00000000000;1818.00000000000;1835.00000000000;1828.00000000000;1843.00000000000;1868.00000000000;1858.00000000000;1867.00000000000;1867.00000000000;1893.00000000000;1911.00000000000;1896.00000000000;1895.00000000000;1903.00000000000;1921.00000000000;1922.00000000000;1937.00000000000;1931.00000000000;1932.00000000000;1909.00000000000;1905.00000000000;1917.00000000000;1897.00000000000;1902.00000000000;1907.00000000000;1902.00000000000;1882.00000000000;1897.00000000000;1902.00000000000;1903.00000000000;1914.00000000000;1899.00000000000;1885.00000000000;1896.00000000000
Gyro X : 2852.00000000000;2839.00000000000;2834.00000000000;2822.00000000000;2821.00000000000;2837.00000000000;2841.00000000000;2840.00000000000;2842.00000000000;2839.00000000000;2830.00000000000;2831.00000000000;2819.00000000000;2853.00000000000;2835.00000000000;2825.00000000000;2804.00000000000;2825.00000000000;2833.00000000000;2809.00000000000;2837.00000000000;2837.00000000000;2826.00000000000;2796.00000000000;2818.00000000000;2836.00000000000;2833.00000000000;2839.00000000000;2841.00000000000;2839.00000000000;2840.00000000000;2812.00000000000;2834.00000000000;2846.00000000000;2834.00000000000;2856.00000000000;2846.00000000000;2858.00000000000;2828.00000000000;2834.00000000000;2837.00000000000;2840.00000000000;2815.00000000000;2846.00000000000;2840.00000000000;2846.00000000000;2874.00000000000;2901.00000000000;2994.00000000000;3118.00000000000;3260.00000000000;3490.00000000000;3651.00000000000;3745.00000000000;3741.00000000000;3598.00000000000;3438.00000000000;3268.00000000000;3045.00000000000;2845.00000000000;2661.00000000000;2490.00000000000;2271.00000000000;2136.00000000000;1959.00000000000;1871.00000000000;1726.00000000000;1691.00000000000;1689.00000000000;1678.00000000000;1702.00000000000;1721.00000000000;1747.00000000000;1744.00000000000;1710.00000000000;1782.00000000000;1826.00000000000;1834.00000000000;1811.00000000000;1819.00000000000;1783.00000000000;1778.00000000000;1786.00000000000;1779.00000000000;1791.00000000000;1795.00000000000;1809.00000000000;1863.00000000000;2028.00000000000;2158.00000000000;2144.00000000000;2215.00000000000;2350.00000000000;2440.00000000000;2499.00000000000;2624.00000000000;2815.00000000000;2992.00000000000;3053.00000000000;3258.00000000000;3500.00000000000;3681.00000000000;3727.00000000000;3705.00000000000;3602.00000000000;3502.00000000000;3417.00000000000;3269.00000000000;3146.00000000000;3048.00000000000;2978.00000000000;2936.00000000000;2925.00000000000;2878.00000000000;2846.00000000000;2853.00000000000;2800.00000000000;2795.00000000000;2805.00000000000;2795.00000000000;2811.00000000000;2787.00000000000;2815.00000000000;2803.00000000000;2788.00000000000;2816.00000000000;2837.00000000000;2852.00000000000;2872.00000000000;2848.00000000000;2878.00000000000;2887.00000000000;2876.00000000000;2904.00000000000;2871.00000000000;2866.00000000000;2859.00000000000;2857.00000000000;2863.00000000000;2841.00000000000;2844.00000000000;2833.00000000000;2835.00000000000;2846.00000000000;2847.00000000000;2846.00000000000;2831.00000000000;2851.00000000000;2833.00000000000;2816.00000000000
Gyro Y : 1795.00000000000;1785.00000000000;1794.00000000000;1791.00000000000;1790.00000000000;1786.00000000000;1794.00000000000;1787.00000000000;1813.00000000000;1807.00000000000;1788.00000000000;1797.00000000000;1768.00000000000;1788.00000000000;1800.00000000000;1788.00000000000;1805.00000000000;1786.00000000000;1795.00000000000;1792.00000000000;1801.00000000000;1817.00000000000;1811.00000000000;1783.00000000000;1797.00000000000;1818.00000000000;1784.00000000000;1801.00000000000;1813.00000000000;1803.00000000000;1793.00000000000;1792.00000000000;1772.00000000000;1802.00000000000;1824.00000000000;1799.00000000000;1821.00000000000;1801.00000000000;1801.00000000000;1815.00000000000;1807.00000000000;1803.00000000000;1822.00000000000;1819.00000000000;1816.00000000000;1773.00000000000;1763.00000000000;1727.00000000000;1655.00000000000;1556.00000000000;1412.00000000000;1379.00000000000;1341.00000000000;1354.00000000000;1363.00000000000;1380.00000000000;1448.00000000000;1513.00000000000;1636.00000000000;1664.00000000000;1743.00000000000;1809.00000000000;1817.00000000000;1801.00000000000;1811.00000000000;1796.00000000000;1746.00000000000;1677.00000000000;1644.00000000000;1574.00000000000;1542.00000000000;1486.00000000000;1463.00000000000;1391.00000000000;1327.00000000000;1305.00000000000;1310.00000000000;1297.00000000000;1270.00000000000;1293.00000000000;1318.00000000000;1330.00000000000;1422.00000000000;1484.00000000000;1548.00000000000;1546.00000000000;1527.00000000000;1532.00000000000;1598.00000000000;1647.00000000000;1719.00000000000;1708.00000000000;1675.00000000000;1666.00000000000;1806.00000000000;1841.00000000000;1772.00000000000;1710.00000000000;1776.00000000000;1791.00000000000;1707.00000000000;1647.00000000000;1655.00000000000;1672.00000000000;1691.00000000000;1712.00000000000;1737.00000000000;1745.00000000000;1798.00000000000;1834.00000000000;1823.00000000000;1899.00000000000;1901.00000000000;1931.00000000000;1931.00000000000;1956.00000000000;1969.00000000000;1972.00000000000;1972.00000000000;1995.00000000000;1962.00000000000;1972.00000000000;1946.00000000000;1933.00000000000;1928.00000000000;1935.00000000000;1924.00000000000;1938.00000000000;1915.00000000000;1896.00000000000;1894.00000000000;1934.00000000000;1896.00000000000;1912.00000000000;1917.00000000000;1917.00000000000;1927.00000000000;1939.00000000000;1906.00000000000;1907.00000000000;1929.00000000000;1899.00000000000;1926.00000000000;1938.00000000000;1915.00000000000;1922.00000000000;1884.00000000000;1912.00000000000;1922.00000000000;1935.00000000000
Gyro Z : 1866.00000000000;1834.00000000000;1871.00000000000;1866.00000000000;1869.00000000000;1859.00000000000;1844.00000000000;1841.00000000000;1839.00000000000;1849.00000000000;1848.00000000000;1847.00000000000;1875.00000000000;1864.00000000000;1865.00000000000;1871.00000000000;1865.00000000000;1860.00000000000;1851.00000000000;1846.00000000000;1839.00000000000;1859.00000000000;1865.00000000000;1858.00000000000;1865.00000000000;1846.00000000000;1875.00000000000;1848.00000000000;1840.00000000000;1836.00000000000;1840.00000000000;1855.00000000000;1874.00000000000;1820.00000000000;1835.00000000000;1836.00000000000;1848.00000000000;1851.00000000000;1862.00000000000;1873.00000000000;1853.00000000000;1845.00000000000;1878.00000000000;1860.00000000000;1853.00000000000;1856.00000000000;1849.00000000000;1856.00000000000;1866.00000000000;1909.00000000000;1984.00000000000;2103.00000000000;2110.00000000000;2121.00000000000;2151.00000000000;2158.00000000000;2175.00000000000;2119.00000000000;2043.00000000000;1965.00000000000;1917.00000000000;1883.00000000000;1814.00000000000;1771.00000000000;1793.00000000000;1769.00000000000;1765.00000000000;1770.00000000000;1788.00000000000;1824.00000000000;1875.00000000000;1905.00000000000;1961.00000000000;1955.00000000000;1957.00000000000;1983.00000000000;2028.00000000000;2019.00000000000;2039.00000000000;2009.00000000000;2026.00000000000;2001.00000000000;1980.00000000000;1959.00000000000;1966.00000000000;1956.00000000000;1835.00000000000;1845.00000000000;1899.00000000000;1934.00000000000;1879.00000000000;1882.00000000000;1903.00000000000;1882.00000000000;1903.00000000000;1961.00000000000;1982.00000000000;1897.00000000000;1927.00000000000;1937.00000000000;1924.00000000000;1979.00000000000;2057.00000000000;2114.00000000000;2081.00000000000;2083.00000000000;2116.00000000000;2063.00000000000;2044.00000000000;2001.00000000000;1943.00000000000;1944.00000000000;1920.00000000000;1886.00000000000;1861.00000000000;1842.00000000000;1809.00000000000;1818.00000000000;1835.00000000000;1828.00000000000;1843.00000000000;1868.00000000000;1858.00000000000;1867.00000000000;1867.00000000000;1893.00000000000;1911.00000000000;1896.00000000000;1895.00000000000;1903.00000000000;1921.00000000000;1922.00000000000;1937.00000000000;1931.00000000000;1932.00000000000;1909.00000000000;1905.00000000000;1917.00000000000;1897.00000000000;1902.00000000000;1907.00000000000;1902.00000000000;1882.00000000000;1897.00000000000;1902.00000000000;1903.00000000000;1914.00000000000;1899.00000000000;1885.00000000000;1896.00000000000
