COMMAND 2 SAMPLE 1
Accel X : 2800.00000000000;2800.00000000000;2795.00000000000;2760.00000000000;2765.00000000000;2794.00000000000;2794.00000000000;2784.00000000000;2805.00000000000;2785.00000000000;2766.00000000000;2761.00000000000;2792.00000000000;2794.00000000000;2789.00000000000;2791.00000000000;2765.00000000000;2794.00000000000;2794.00000000000;2792.00000000000;2810.00000000000;2784.00000000000;2768.00000000000;2791.00000000000;2771.00000000000;2783.00000000000;2768.00000000000;2787.00000000000;2770.00000000000;2777.00000000000;2790.00000000000;2789.00000000000;2797.00000000000;2775.00000000000;2801.00000000000;2766.00000000000;2800.00000000000;2770.00000000000;2776.00000000000;2771.00000000000;2766.00000000000;2777.00000000000;2798.00000000000;2795.00000000000;2787.00000000000;2809.00000000000;2798.00000000000;2783.00000000000;2795.00000000000;2795.00000000000;2784.00000000000;2762.00000000000;2765.00000000000;2752.00000000000;2723.00000000000;2643.00000000000;2661.00000000000;2674.00000000000;2759.00000000000;2880.00000000000;2967.00000000000;3064.00000000000;3120.00000000000;3149.00000000000;3144.00000000000;3026.00000000000;2916.00000000000;2840.00000000000;2789.00000000000;2746.00000000000;2659.00000000000;2539.00000000000;2437.00000000000;2434.00000000000;2331.00000000000;2195.00000000000;2115.00000000000;2051.00000000000;2023.00000000000;1857.00000000000;1843.00000000000;1916.00000000000;2084.00000000000;2147.00000000000;2199.00000000000;2214.00000000000;2290.00000000000;2348.00000000000;2387.00000000000;2387.00000000000;2381.00000000000;2319.00000000000;2324.00000000000;2287.00000000000;2307.00000000000;2363.00000000000;2401.00000000000;2485.00000000000;2483.00000000000;2525.00000000000;2583.00000000000;2544.00000000000;2610.00000000000;2708.00000000000;2803.00000000000;2808.00000000000;2715.00000000000;2659.00000000000;2770.00000000000;2771.00000000000;2659.00000000000;2616.00000000000;2660.00000000000;2713.00000000000;2688.00000000000;2730.00000000000;2786.00000000000;2799.00000000000;2804.00000000000;2775.00000000000;2778.00000000000;2799.00000000000;2815.00000000000;2803.00000000000;2804.00000000000;2798.00000000000;2784.00000000000;2800.00000000000;2782.00000000000;2780.00000000000;2781.00000000000;2798.00000000000;2801.00000000000;2798.00000000000;2785.00000000000;2769.00000000000;2753.00000000000;2774.00000000000;2808.00000000000;2807.00000000000;2772.00000000000;2756.00000000000;2796.00000000000;2794.00000000000;2796.00000000000;2793.00000000000;2810.00000000000;2766.00000000000;2796.00000000000;2778.00000000000
Accel Y : 1864.00000000000;1884.00000000000;1887.00000000000;1867.00000000000;1866.00000000000;1860.00000000000;1854.00000000000;1854.00000000000;1874.00000000000;1863.00000000000;1859.00000000000;1873.00000000000;1866.00000000000;1873.00000000000;1881.00000000000;1878.00000000000;1875.00000000000;1889.00000000000;1865.00000000000;1869.00000000000;1871.00000000000;1890.00000000000;1877.00000000000;1874.00000000000;1863.00000000000;1883.00000000000;1881.00000000000;1882.00000000000;1853.00000000000;1893.00000000000;1855.00000000000;1892.00000000000;1893.00000000000;1881.00000000000;1881.00000000000;1885.00000000000;1846.00000000000;1873.00000000000;1866.00000000000;1871.00000000000;1880.00000000000;1876.00000000000;1871.00000000000;1867.00000000000;1851.00000000000;1883.00000000000;1883.00000000000;1874.00000000000;1861.00000000000;1877.00000000000;1853.00000000000;1817.00000000000;1831.00000000000;1755.00000000000;1712.00000000000;1703.00000000000;1749.00000000000;1839.00000000000;1924.00000000000;2036.00000000000;2140.00000000000;2209.00000000000;2262.00000000000;2259.00000000000;2280.00000000000;2287.00000000000;2239.00000000000;2198.00000000000;2162.00000000000;2117.00000000000;2101.00000000000;2055.00000000000;1979.00000000000;1909.00000000000;1813.00000000000;1715.00000000000;1680.00000000000;1646.00000000000;1622.00000000000;1577.00000000000;1551.00000000000;1527.00000000000;1472.00000000000;1427.00000000000;1422.00000000000;1401.00000000000;1369.00000000000;1354.00000000000;1349.00000000000;1354.00000000000;1363.00000000000;1395.00000000000;1402.00000000000;1437.00000000000;1477.00000000000;1515.00000000000;1549.00000000000;1594.00000000000;1622.00000000000;1690.00000000000;1787.00000000000;1790.00000000000;1852.00000000000;1906.00000000000;1938.00000000000;1946.00000000000;1956.00000000000;1969.00000000000;2028.00000000000;2075.00000000000;2000.00000000000;2020.00000000000;2081.00000000000;2056.00000000000;2078.00000000000;2034.00000000000;2021.00000000000;1991.00000000000;1982.00000000000;1953.00000000000;1963.00000000000;1957.00000000000;1950.00000000000;1944.00000000000;1943.00000000000;1941.00000000000;1918.00000000000;1943.00000000000;1927.00000000000;1923.00000000000;1942.00000000000;1938.00000000000;1950.00000000000;1955.00000000000;1919.00000000000;1954.00000000000;1949.00000000000;1940.00000000000;1946.00000000000;1945.00000000000;1927.00000000000;1917.00000000000;1950.00000000000;1912.00000000000;1930.00000000000;1942.00000000000;1915.00000000000;1929.00000000000;1946.00000000000;1920.00000000000
Accel Z : 2070.00000000000;2068.00000000000;2078.00000000000;2048.00000000000;2067.00000000000;2055.00000000000;2046.00000000000;2041.00000000000;2079.00000000000;2044.00000000000;2061.00000000000;2062.00000000000;2052.00000000000;2050.00000000000;2071.00000000000;2070.00000000000;2087.00000000000;2073.00000000000;2049.00000000000;2074.00000000000;2072.00000000000;2062.00000000000;2070.00000000000;2060.00000000000;2059.00000000000;2063.00000000000;2065.00000000000;2058.00000000000;2073.00000000000;2058.00000000000;2072.00000000000;2065.00000000000;2064.00000000000;2064.00000000000;2078.00000000000;2058.00000000000;2075.00000000000;2071.00000000000;2050.00000000000;2054.00000000000;2070.00000000000;2036.00000000000;2072.00000000000;2078.00000000000;2049.00000000000;2064.00000000000;2034.00000000000;2055.00000000000;2057.00000000000;2062.00000000000;2071.00000000000;2063.00000000000;2081.00000000000;2093.00000000000;2144.00000000000;2230.00000000000;2379.00000000000;2485.00000000000;2548.00000000000;2575.00000000000;2551.00000000000;2480.00000000000;2427.00000000000;2342.00000000000;2182.00000000000;2084.00000000000;1999.00000000000;1902.00000000000;1839.00000000000;1731.00000000000;1695.00000000000;1627.00000000000;1427.00000000000;1257.00000000000;1005.00000000000;845.000000000000;755.000000000000;672.000000000000;665.000000000000;571.000000000000;515.000000000000;514.000000000000;590.000000000000;699.000000000000;772.000000000000;820.000000000000;872.000000000000;871.000000000000;836.000000000000;816.000000000000;768.000000000000;680.000000000000;650.000000000000;666.000000000000;694.000000000000;777.000000000000;866.000000000000;951.000000000000;1023.00000000000;1149.00000000000;1296.00000000000;1358.00000000000;1446.00000000000;1596.00000000000;1807.00000000000;1839.00000000000;1813.00000000000;1792.00000000000;1984.00000000000;2139.00000000000;2121.00000000000;2164.00000000000;2308.00000000000;2357.00000000000;2334.00000000000;2410.00000000000;2407.00000000000;2420.00000000000;2381.00000000000;2359.00000000000;2336.00000000000;2309.00000000000;2280.00000000000;2246.00000000000;2237.00000000000;2203.00000000000;2157.00000000000;2154.00000000000;2115.00000000000;2126.00000000000;2092.00000000000;2096.00000000000;2051.00000000000;2066.00000000000;2073.00000000000;2079.00000000000;2057.00000000000;2047.00000000000;2059.00000000000;2070.00000000000;2054.00000000000;2066.00000000000;2062.00000000000;2058.00000000000;2080.00000000000;2099.00000000000;2081.00000000000;2079.00000000000;2093.00000000000;2060.00000000000
Gyro X : 2800.00000000000;2800.00000000000;2795.00000000000;2760.00000000000;2765.00000000000;2794.00000000000;2794.00000000000;2784.00000000000;2805.00000000000;2785.00000000000;2766.00000000000;2761.00000000000;2792.00000000000;2794.00000000000;2789.00000000000;2791.00000000000;2765.00000000000;2794.00000000000;2794.00000000000;2792.00000000000;2810.00000000000;2784.00000000000;2768.00000000000;2791.00000000000;2771.00000000000;2783.00000000000;2768.00000000000;2787.00000000000;2770.00000000000;2777.00000000000;2790.00000000000;2789.00000000000;2797.00000000000;2775.00000000000;2801.00000000000;2766.00000000000;2800.00000000000;2770.00000000000;2776.00000000000;2771.00000000000;2766.00000000000;2777.00000000000;2798.00000000000;2795.00000000000;2787.00000000000;2809.00000000000;2798.00000000000;2783.00000000000;2795.00000000000;2795.00000000000;2784.00000000000;2762.00000000000;2765.00000000000;2752.00000000000;2723.00000000000;2643.00000000000;2661.00000000000;2674.00000000000;2759.00000000000;2880.00000000000;2967.00000000000;3064.00000000000;3120.00000000000;3149.00000000000;3144.00000000000;3026.00000000000;2916.00000000000;2840.00000000000;2789.00000000000;2746.00000000000;2659.00000000000;2539.00000000000;2437.00000000000;2434.00000000000;2331.00000000000;2195.00000000000;2115.00000000000;2051.00000000000;2023.00000000000;1857.00000000000;1843.00000000000;1916.00000000000;2084.00000000000;2147.00000000000;2199.00000000000;2214.00000000000;2290.00000000000;2348.00000000000;2387.00000000000;2387.00000000000;2381.00000000000;2319.00000000000;2324.00000000000;2287.00000000000;2307.00000000000;2363.00000000000;2401.00000000000;2485.00000000000;2483.00000000000;2525.00000000000;2583.00000000000;2544.00000000000;2610.00000000000;2708.00000000000;2803.00000000000;2808.00000000000;2715.00000000000;2659.00000000000;2770.00000000000;2771.00000000000;2659.00000000000;2616.00000000000;2660.00000000000;2713.00000000000;2688.00000000000;2730.00000000000;2786.00000000000;2799.00000000000;2804.00000000000;2775.00000000000;2778.00000000000;2799.00000000000;2815.00000000000;2803.00000000000;2804.00000000000;2798.00000000000;2784.00000000000;2800.00000000000;2782.00000000000;2780.00000000000;2781.00000000000;2798.00000000000;2801.00000000000;2798.00000000000;2785.00000000000;2769.00000000000;2753.00000000000;2774.00000000000;2808.00000000000;2807.00000000000;2772.00000000000;2756.00000000000;2796.00000000000;2794.00000000000;2796.00000000000;2793.00000000000;2810.00000000000;2766.00000000000;2796.00000000000;2778.00000000000
Gyro Y : 1864.00000000000;1884.00000000000;1887.00000000000;1867.00000000000;1866.00000000000;1860.00000000000;1854.00000000000;1854.00000000000;1874.00000000000;1863.00000000000;1859.00000000000;1873.00000000000;1866.00000000000;1873.00000000000;1881.00000000000;1878.00000000000;1875.00000000000;1889.00000000000;1865.00000000000;1869.00000000000;1871.00000000000;1890.00000000000;1877.00000000000;1874.00000000000;1863.00000000000;1883.00000000000;1881.00000000000;1882.00000000000;1853.00000000000;1893.00000000000;1855.00000000000;1892.00000000000;1893.00000000000;1881.00000000000;1881.00000000000;1885.00000000000;1846.00000000000;1873.00000000000;1866.00000000000;1871.00000000000;1880.00000000000;1876.00000000000;1871.00000000000;1867.00000000000;1851.00000000000;1883.00000000000;1883.00000000000;1874.00000000000;1861.00000000000;1877.00000000000;1853.00000000000;1817.00000000000;1831.00000000000;1755.00000000000;1712.00000000000;1703.00000000000;1749.00000000000;1839.00000000000;1924.00000000000;2036.00000000000;2140.00000000000;2209.00000000000;2262.00000000000;2259.00000000000;2280.00000000000;2287.00000000000;2239.00000000000;2198.00000000000;2162.00000000000;2117.00000000000;2101.00000000000;2055.00000000000;1979.00000000000;1909.00000000000;1813.00000000000;1715.00000000000;1680.00000000000;1646.00000000000;1622.00000000000;1577.00000000000;1551.00000000000;1527.00000000000;1472.00000000000;1427.00000000000;1422.00000000000;1401.00000000000;1369.00000000000;1354.00000000000;1349.00000000000;1354.00000000000;1363.00000000000;1395.00000000000;1402.00000000000;1437.00000000000;1477.00000000000;1515.00000000000;1549.00000000000;1594.00000000000;1622.00000000000;1690.00000000000;1787.00000000000;1790.00000000000;1852.00000000000;1906.00000000000;1938.00000000000;1946.00000000000;1956.00000000000;1969.00000000000;2028.00000000000;2075.00000000000;2000.00000000000;2020.00000000000;2081.00000000000;2056.00000000000;2078.00000000000;2034.00000000000;2021.00000000000;1991.00000000000;1982.00000000000;1953.00000000000;1963.00000000000;1957.00000000000;1950.00000000000;1944.00000000000;1943.00000000000;1941.00000000000;1918.00000000000;1943.00000000000;1927.00000000000;1923.00000000000;1942.00000000000;1938.00000000000;1950.00000000000;1955.00000000000;1919.00000000000;1954.00000000000;1949.00000000000;1940.00000000000;1946.00000000000;1945.00000000000;1927.00000000000;1917.00000000000;1950.00000000000;1912.00000000000;1930.00000000000;1942.00000000000;1915.00000000000;1929.00000000000;1946.00000000000;1920.00000000000
Gyro Z : 2070.00000000000;2068.00000000000;2078.00000000000;2048.00000000000;2067.00000000000;2055.00000000000;2046.00000000000;2041.00000000000;2079.00000000000;2044.00000000000;2061.00000000000;2062.00000000000;2052.00000000000;2050.00000000000;2071.00000000000;2070.00000000000;2087.00000000000;2073.00000000000;2049.00000000000;2074.00000000000;2072.00000000000;2062.00000000000;2070.00000000000;2060.00000000000;2059.00000000000;2063.00000000000;2065.00000000000;2058.00000000000;2073.00000000000;2058.00000000000;2072.00000000000;2065.00000000000;2064.00000000000;2064.00000000000;2078.00000000000;2058.00000000000;2075.00000000000;2071.00000000000;2050.00000000000;2054.00000000000;2070.00000000000;2036.00000000000;2072.00000000000;2078.00000000000;2049.00000000000;2064.00000000000;2034.00000000000;2055.00000000000;2057.00000000000;2062.00000000000;2071.00000000000;2063.00000000000;2081.00000000000;2093.00000000000;2144.00000000000;2230.00000000000;2379.00000000000;2485.00000000000;2548.00000000000;2575.00000000000;2551.00000000000;2480.00000000000;2427.00000000000;2342.00000000000;2182.00000000000;2084.00000000000;1999.00000000000;1902.00000000000;1839.00000000000;1731.00000000000;1695.00000000000;1627.00000000000;1427.00000000000;1257.00000000000;1005.00000000000;845.000000000000;755.000000000000;672.000000000000;665.000000000000;571.000000000000;515.000000000000;514.000000000000;590.000000000000;699.000000000000;772.000000000000;820.000000000000;872.000000000000;871.000000000000;836.000000000000;816.000000000000;768.000000000000;680.000000000000;650.000000000000;666.000000000000;694.000000000000;777.000000000000;866.000000000000;951.000000000000;1023.00000000000;1149.00000000000;1296.00000000000;1358.00000000000;1446.00000000000;1596.00000000000;1807.00000000000;1839.00000000000;1813.00000000000;1792.00000000000;1984.00000000000;2139.00000000000;2121.00000000000;2164.00000000000;2308.00000000000;2357.00000000000;2334.00000000000;2410.00000000000;2407.00000000000;2420.00000000000;2381.00000000000;2359.00000000000;2336.00000000000;2309.00000000000;2280.00000000000;2246.00000000000;2237.00000000000;2203.00000000000;2157.00000000000;2154.00000000000;2115.00000000000;2126.00000000000;2092.00000000000;2096.00000000000;2051.00000000000;2066.00000000000;2073.00000000000;2079.00000000000;2057.00000000000;2047.00000000000;2059.00000000000;2070.00000000000;2054.00000000000;2066.00000000000;2062.00000000000;2058.00000000000;2080.00000000000;2099.00000000000;2081.00000000000;2079.00000000000;2093.00000000000;2060.00000000000
