COMMAND 2 SAMPLE 1
Accel X : 2795.00000000000;2796.00000000000;2772.00000000000;2801.00000000000;2804.00000000000;2804.00000000000;2803.00000000000;2798.00000000000;2807.00000000000;2782.00000000000;2785.00000000000;2795.00000000000;2807.00000000000;2797.00000000000;2795.00000000000;2800.00000000000;2798.00000000000;2800.00000000000;2808.00000000000;2808.00000000000;2805.00000000000;2812.00000000000;2809.00000000000;2804.00000000000;2789.00000000000;2801.00000000000;2806.00000000000;2804.00000000000;2787.00000000000;2794.00000000000;2814.00000000000;2809.00000000000;2798.00000000000;2806.00000000000;2812.00000000000;2804.00000000000;2794.00000000000;2801.00000000000;2795.00000000000;2809.00000000000;2802.00000000000;2792.00000000000;2789.00000000000;2788.00000000000;2806.00000000000;2793.00000000000;2808.00000000000;2800.00000000000;2792.00000000000;2805.00000000000;2794.00000000000;2785.00000000000;2788.00000000000;2810.00000000000;2823.00000000000;2783.00000000000;2754.00000000000;2708.00000000000;2656.00000000000;2777.00000000000;2859.00000000000;2855.00000000000;2888.00000000000;2964.00000000000;3050.00000000000;3038.00000000000;3038.00000000000;2970.00000000000;2983.00000000000;2884.00000000000;2799.00000000000;2661.00000000000;2591.00000000000;2487.00000000000;2313.00000000000;2199.00000000000;2116.00000000000;1968.00000000000;1840.00000000000;1863.00000000000;1911.00000000000;1948.00000000000;1993.00000000000;2084.00000000000;2153.00000000000;2193.00000000000;2258.00000000000;2262.00000000000;2304.00000000000;2324.00000000000;2337.00000000000;2351.00000000000;2305.00000000000;2305.00000000000;2271.00000000000;2257.00000000000;2247.00000000000;2341.00000000000;2397.00000000000;2527.00000000000;2569.00000000000;2472.00000000000;2489.00000000000;2614.00000000000;2717.00000000000;2755.00000000000;2681.00000000000;2593.00000000000;2605.00000000000;2732.00000000000;2854.00000000000;2935.00000000000;2992.00000000000;2986.00000000000;2945.00000000000;2891.00000000000;2853.00000000000;2847.00000000000;2874.00000000000;2896.00000000000;2911.00000000000;2872.00000000000;2877.00000000000;2853.00000000000;2837.00000000000;2842.00000000000;2840.00000000000;2831.00000000000;2834.00000000000;2804.00000000000;2800.00000000000;2816.00000000000;2818.00000000000;2813.00000000000;2794.00000000000;2824.00000000000;2813.00000000000;2838.00000000000;2843.00000000000;2835.00000000000;2853.00000000000;2852.00000000000;2851.00000000000;2842.00000000000;2858.00000000000;2851.00000000000;2849.00000000000;2835.00000000000;2859.00000000000;2848.00000000000
Accel Y : 1981.00000000000;1986.00000000000;1963.00000000000;1979.00000000000;1969.00000000000;1969.00000000000;1988.00000000000;1968.00000000000;1987.00000000000;1974.00000000000;1968.00000000000;1958.00000000000;1962.00000000000;1972.00000000000;1951.00000000000;1979.00000000000;1978.00000000000;1970.00000000000;1975.00000000000;1970.00000000000;1965.00000000000;1970.00000000000;1967.00000000000;1953.00000000000;1984.00000000000;1981.00000000000;1983.00000000000;1974.00000000000;1987.00000000000;1971.00000000000;1980.00000000000;1960.00000000000;1975.00000000000;1972.00000000000;1969.00000000000;1974.00000000000;1961.00000000000;1968.00000000000;1969.00000000000;1966.00000000000;1961.00000000000;1953.00000000000;1959.00000000000;1981.00000000000;1985.00000000000;1963.00000000000;1968.00000000000;1959.00000000000;1952.00000000000;1951.00000000000;1946.00000000000;1948.00000000000;1910.00000000000;1923.00000000000;1903.00000000000;1903.00000000000;1920.00000000000;1907.00000000000;1957.00000000000;2026.00000000000;2089.00000000000;2096.00000000000;2153.00000000000;2171.00000000000;2166.00000000000;2130.00000000000;2121.00000000000;2130.00000000000;2096.00000000000;2103.00000000000;2083.00000000000;2032.00000000000;1969.00000000000;1975.00000000000;1865.00000000000;1860.00000000000;1847.00000000000;1813.00000000000;1806.00000000000;1757.00000000000;1729.00000000000;1655.00000000000;1621.00000000000;1587.00000000000;1533.00000000000;1474.00000000000;1451.00000000000;1447.00000000000;1446.00000000000;1457.00000000000;1437.00000000000;1459.00000000000;1464.00000000000;1494.00000000000;1506.00000000000;1536.00000000000;1578.00000000000;1614.00000000000;1660.00000000000;1725.00000000000;1755.00000000000;1810.00000000000;1861.00000000000;1932.00000000000;2011.00000000000;2035.00000000000;2007.00000000000;2080.00000000000;2183.00000000000;2243.00000000000;2223.00000000000;2167.00000000000;2131.00000000000;2104.00000000000;2064.00000000000;2056.00000000000;2063.00000000000;2048.00000000000;2025.00000000000;1990.00000000000;2016.00000000000;1985.00000000000;2007.00000000000;1983.00000000000;1967.00000000000;1992.00000000000;1981.00000000000;1984.00000000000;1969.00000000000;1979.00000000000;1969.00000000000;1967.00000000000;1950.00000000000;1932.00000000000;1931.00000000000;1961.00000000000;1930.00000000000;1939.00000000000;1937.00000000000;1941.00000000000;1942.00000000000;1934.00000000000;1946.00000000000;1949.00000000000;1931.00000000000;1919.00000000000;1911.00000000000;1953.00000000000;1952.00000000000;1919.00000000000
Accel Z : 2077.00000000000;2088.00000000000;2077.00000000000;2074.00000000000;2060.00000000000;2062.00000000000;2062.00000000000;2068.00000000000;2064.00000000000;2070.00000000000;2070.00000000000;2080.00000000000;2069.00000000000;2057.00000000000;2057.00000000000;2045.00000000000;2049.00000000000;2053.00000000000;2081.00000000000;2051.00000000000;2077.00000000000;2062.00000000000;2063.00000000000;2068.00000000000;2069.00000000000;2073.00000000000;2078.00000000000;2082.00000000000;2079.00000000000;2085.00000000000;2084.00000000000;2054.00000000000;2056.00000000000;2078.00000000000;2073.00000000000;2081.00000000000;2072.00000000000;2067.00000000000;2073.00000000000;2057.00000000000;2067.00000000000;2081.00000000000;2064.00000000000;2094.00000000000;2071.00000000000;2062.00000000000;2076.00000000000;2077.00000000000;2057.00000000000;2050.00000000000;2078.00000000000;2070.00000000000;2058.00000000000;2091.00000000000;2084.00000000000;2101.00000000000;2152.00000000000;2208.00000000000;2285.00000000000;2350.00000000000;2442.00000000000;2514.00000000000;2538.00000000000;2479.00000000000;2382.00000000000;2262.00000000000;2124.00000000000;2061.00000000000;1885.00000000000;1736.00000000000;1574.00000000000;1372.00000000000;1305.00000000000;1132.00000000000;947.000000000000;826.000000000000;764.000000000000;704.000000000000;638.000000000000;659.000000000000;632.000000000000;623.000000000000;719.000000000000;787.000000000000;848.000000000000;844.000000000000;857.000000000000;856.000000000000;819.000000000000;809.000000000000;775.000000000000;731.000000000000;637.000000000000;602.000000000000;588.000000000000;616.000000000000;704.000000000000;750.000000000000;871.000000000000;1031.00000000000;1092.00000000000;1255.00000000000;1394.00000000000;1517.00000000000;1739.00000000000;1829.00000000000;1762.00000000000;1844.00000000000;1989.00000000000;2186.00000000000;2303.00000000000;2290.00000000000;2290.00000000000;2331.00000000000;2337.00000000000;2310.00000000000;2295.00000000000;2277.00000000000;2226.00000000000;2173.00000000000;2136.00000000000;2127.00000000000;2077.00000000000;2077.00000000000;2036.00000000000;2005.00000000000;1997.00000000000;1976.00000000000;1958.00000000000;1947.00000000000;1950.00000000000;1940.00000000000;1918.00000000000;1923.00000000000;1911.00000000000;1923.00000000000;1933.00000000000;1911.00000000000;1899.00000000000;1900.00000000000;1922.00000000000;1921.00000000000;1927.00000000000;1954.00000000000;1935.00000000000;1929.00000000000;1948.00000000000;1939.00000000000;1943.00000000000;1935.00000000000
Gyro X : 2795.00000000000;2796.00000000000;2772.00000000000;2801.00000000000;2804.00000000000;2804.00000000000;2803.00000000000;2798.00000000000;2807.00000000000;2782.00000000000;2785.00000000000;2795.00000000000;2807.00000000000;2797.00000000000;2795.00000000000;2800.00000000000;2798.00000000000;2800.00000000000;2808.00000000000;2808.00000000000;2805.00000000000;2812.00000000000;2809.00000000000;2804.00000000000;2789.00000000000;2801.00000000000;2806.00000000000;2804.00000000000;2787.00000000000;2794.00000000000;2814.00000000000;2809.00000000000;2798.00000000000;2806.00000000000;2812.00000000000;2804.00000000000;2794.00000000000;2801.00000000000;2795.00000000000;2809.00000000000;2802.00000000000;2792.00000000000;2789.00000000000;2788.00000000000;2806.00000000000;2793.00000000000;2808.00000000000;2800.00000000000;2792.00000000000;2805.00000000000;2794.00000000000;2785.00000000000;2788.00000000000;2810.00000000000;2823.00000000000;2783.00000000000;2754.00000000000;2708.00000000000;2656.00000000000;2777.00000000000;2859.00000000000;2855.00000000000;2888.00000000000;2964.00000000000;3050.00000000000;3038.00000000000;3038.00000000000;2970.00000000000;2983.00000000000;2884.00000000000;2799.00000000000;2661.00000000000;2591.00000000000;2487.00000000000;2313.00000000000;2199.00000000000;2116.00000000000;1968.00000000000;1840.00000000000;1863.00000000000;1911.00000000000;1948.00000000000;1993.00000000000;2084.00000000000;2153.00000000000;2193.00000000000;2258.00000000000;2262.00000000000;2304.00000000000;2324.00000000000;2337.00000000000;2351.00000000000;2305.00000000000;2305.00000000000;2271.00000000000;2257.00000000000;2247.00000000000;2341.00000000000;2397.00000000000;2527.00000000000;2569.00000000000;2472.00000000000;2489.00000000000;2614.00000000000;2717.00000000000;2755.00000000000;2681.00000000000;2593.00000000000;2605.00000000000;2732.00000000000;2854.00000000000;2935.00000000000;2992.00000000000;2986.00000000000;2945.00000000000;2891.00000000000;2853.00000000000;2847.00000000000;2874.00000000000;2896.00000000000;2911.00000000000;2872.00000000000;2877.00000000000;2853.00000000000;2837.00000000000;2842.00000000000;2840.00000000000;2831.00000000000;2834.00000000000;2804.00000000000;2800.00000000000;2816.00000000000;2818.00000000000;2813.00000000000;2794.00000000000;2824.00000000000;2813.00000000000;2838.00000000000;2843.00000000000;2835.00000000000;2853.00000000000;2852.00000000000;2851.00000000000;2842.00000000000;2858.00000000000;2851.00000000000;2849.00000000000;2835.00000000000;2859.00000000000;2848.00000000000
Gyro Y : 1981.00000000000;1986.00000000000;1963.00000000000;1979.00000000000;1969.00000000000;1969.00000000000;1988.00000000000;1968.00000000000;1987.00000000000;1974.00000000000;1968.00000000000;1958.00000000000;1962.00000000000;1972.00000000000;1951.00000000000;1979.00000000000;1978.00000000000;1970.00000000000;1975.00000000000;1970.00000000000;1965.00000000000;1970.00000000000;1967.00000000000;1953.00000000000;1984.00000000000;1981.00000000000;1983.00000000000;1974.00000000000;1987.00000000000;1971.00000000000;1980.00000000000;1960.00000000000;1975.00000000000;1972.00000000000;1969.00000000000;1974.00000000000;1961.00000000000;1968.00000000000;1969.00000000000;1966.00000000000;1961.00000000000;1953.00000000000;1959.00000000000;1981.00000000000;1985.00000000000;1963.00000000000;1968.00000000000;1959.00000000000;1952.00000000000;1951.00000000000;1946.00000000000;1948.00000000000;1910.00000000000;1923.00000000000;1903.00000000000;1903.00000000000;1920.00000000000;1907.00000000000;1957.00000000000;2026.00000000000;2089.00000000000;2096.00000000000;2153.00000000000;2171.00000000000;2166.00000000000;2130.00000000000;2121.00000000000;2130.00000000000;2096.00000000000;2103.00000000000;2083.00000000000;2032.00000000000;1969.00000000000;1975.00000000000;1865.00000000000;1860.00000000000;1847.00000000000;1813.00000000000;1806.00000000000;1757.00000000000;1729.00000000000;1655.00000000000;1621.00000000000;1587.00000000000;1533.00000000000;1474.00000000000;1451.00000000000;1447.00000000000;1446.00000000000;1457.00000000000;1437.00000000000;1459.00000000000;1464.00000000000;1494.00000000000;1506.00000000000;1536.00000000000;1578.00000000000;1614.00000000000;1660.00000000000;1725.00000000000;1755.00000000000;1810.00000000000;1861.00000000000;1932.00000000000;2011.00000000000;2035.00000000000;2007.00000000000;2080.00000000000;2183.00000000000;2243.00000000000;2223.00000000000;2167.00000000000;2131.00000000000;2104.00000000000;2064.00000000000;2056.00000000000;2063.00000000000;2048.00000000000;2025.00000000000;1990.00000000000;2016.00000000000;1985.00000000000;2007.00000000000;1983.00000000000;1967.00000000000;1992.00000000000;1981.00000000000;1984.00000000000;1969.00000000000;1979.00000000000;1969.00000000000;1967.00000000000;1950.00000000000;1932.00000000000;1931.00000000000;1961.00000000000;1930.00000000000;1939.00000000000;1937.00000000000;1941.00000000000;1942.00000000000;1934.00000000000;1946.00000000000;1949.00000000000;1931.00000000000;1919.00000000000;1911.00000000000;1953.00000000000;1952.00000000000;1919.00000000000
Gyro Z : 2077.00000000000;2088.00000000000;2077.00000000000;2074.00000000000;2060.00000000000;2062.00000000000;2062.00000000000;2068.00000000000;2064.00000000000;2070.00000000000;2070.00000000000;2080.00000000000;2069.00000000000;2057.00000000000;2057.00000000000;2045.00000000000;2049.00000000000;2053.00000000000;2081.00000000000;2051.00000000000;2077.00000000000;2062.00000000000;2063.00000000000;2068.00000000000;2069.00000000000;2073.00000000000;2078.00000000000;2082.00000000000;2079.00000000000;2085.00000000000;2084.00000000000;2054.00000000000;2056.00000000000;2078.00000000000;2073.00000000000;2081.00000000000;2072.00000000000;2067.00000000000;2073.00000000000;2057.00000000000;2067.00000000000;2081.00000000000;2064.00000000000;2094.00000000000;2071.00000000000;2062.00000000000;2076.00000000000;2077.00000000000;2057.00000000000;2050.00000000000;2078.00000000000;2070.00000000000;2058.00000000000;2091.00000000000;2084.00000000000;2101.00000000000;2152.00000000000;2208.00000000000;2285.00000000000;2350.00000000000;2442.00000000000;2514.00000000000;2538.00000000000;2479.00000000000;2382.00000000000;2262.00000000000;2124.00000000000;2061.00000000000;1885.00000000000;1736.00000000000;1574.00000000000;1372.00000000000;1305.00000000000;1132.00000000000;947.000000000000;826.000000000000;764.000000000000;704.000000000000;638.000000000000;659.000000000000;632.000000000000;623.000000000000;719.000000000000;787.000000000000;848.000000000000;844.000000000000;857.000000000000;856.000000000000;819.000000000000;809.000000000000;775.000000000000;731.000000000000;637.000000000000;602.000000000000;588.000000000000;616.000000000000;704.000000000000;750.000000000000;871.000000000000;1031.00000000000;1092.00000000000;1255.00000000000;1394.00000000000;1517.00000000000;1739.00000000000;1829.00000000000;1762.00000000000;1844.00000000000;1989.00000000000;2186.00000000000;2303.00000000000;2290.00000000000;2290.00000000000;2331.00000000000;2337.00000000000;2310.00000000000;2295.00000000000;2277.00000000000;2226.00000000000;2173.00000000000;2136.00000000000;2127.00000000000;2077.00000000000;2077.00000000000;2036.00000000000;2005.00000000000;1997.00000000000;1976.00000000000;1958.00000000000;1947.00000000000;1950.00000000000;1940.00000000000;1918.00000000000;1923.00000000000;1911.00000000000;1923.00000000000;1933.00000000000;1911.00000000000;1899.00000000000;1900.00000000000;1922.00000000000;1921.00000000000;1927.00000000000;1954.00000000000;1935.00000000000;1929.00000000000;1948.00000000000;1939.00000000000;1943.00000000000;1935.00000000000
