COMMAND 2 SAMPLE 1
Accel X : 2808.00000000000;2803.00000000000;2805.00000000000;2789.00000000000;2781.00000000000;2809.00000000000;2798.00000000000;2794.00000000000;2808.00000000000;2789.00000000000;2799.00000000000;2784.00000000000;2799.00000000000;2777.00000000000;2800.00000000000;2800.00000000000;2795.00000000000;2799.00000000000;2794.00000000000;2796.00000000000;2809.00000000000;2798.00000000000;2786.00000000000;2776.00000000000;2802.00000000000;2802.00000000000;2799.00000000000;2816.00000000000;2803.00000000000;2787.00000000000;2771.00000000000;2779.00000000000;2776.00000000000;2776.00000000000;2807.00000000000;2796.00000000000;2795.00000000000;2800.00000000000;2804.00000000000;2814.00000000000;2810.00000000000;2814.00000000000;2796.00000000000;2787.00000000000;2794.00000000000;2781.00000000000;2808.00000000000;2815.00000000000;2785.00000000000;2738.00000000000;2718.00000000000;2831.00000000000;2966.00000000000;3051.00000000000;3006.00000000000;2930.00000000000;2903.00000000000;2907.00000000000;2931.00000000000;2896.00000000000;2774.00000000000;2702.00000000000;2868.00000000000;2962.00000000000;2863.00000000000;2720.00000000000;2622.00000000000;2596.00000000000;2405.00000000000;2250.00000000000;2183.00000000000;2000.00000000000;1971.00000000000;1901.00000000000;1894.00000000000;1918.00000000000;1985.00000000000;2023.00000000000;2084.00000000000;2141.00000000000;2178.00000000000;2220.00000000000;2235.00000000000;2281.00000000000;2433.00000000000;2463.00000000000;2457.00000000000;2558.00000000000;2687.00000000000;2810.00000000000;2732.00000000000;2501.00000000000;2560.00000000000;2739.00000000000;2808.00000000000;2793.00000000000;2810.00000000000;2835.00000000000;2813.00000000000;2751.00000000000;2626.00000000000;2633.00000000000;2699.00000000000;2802.00000000000;2858.00000000000;2908.00000000000;2853.00000000000;2781.00000000000;2763.00000000000;2781.00000000000;2791.00000000000;2799.00000000000;2781.00000000000;2785.00000000000;2760.00000000000;2781.00000000000;2791.00000000000;2834.00000000000;2801.00000000000;2801.00000000000;2792.00000000000;2789.00000000000;2806.00000000000;2812.00000000000;2783.00000000000;2791.00000000000;2805.00000000000;2806.00000000000;2795.00000000000;2821.00000000000;2780.00000000000;2798.00000000000;2807.00000000000;2821.00000000000;2793.00000000000;2799.00000000000;2806.00000000000;2791.00000000000;2814.00000000000;2789.00000000000;2805.00000000000;2790.00000000000;2786.00000000000;2790.00000000000;2798.00000000000;2778.00000000000;2795.00000000000;2786.00000000000;2806.00000000000;2833.00000000000
Accel Y : 1979.00000000000;1952.00000000000;1957.00000000000;1951.00000000000;1955.00000000000;1971.00000000000;1943.00000000000;1954.00000000000;1968.00000000000;1950.00000000000;1967.00000000000;1966.00000000000;1958.00000000000;1959.00000000000;1935.00000000000;1961.00000000000;1967.00000000000;1966.00000000000;1951.00000000000;1962.00000000000;1970.00000000000;1957.00000000000;1959.00000000000;1958.00000000000;1945.00000000000;1983.00000000000;1961.00000000000;1966.00000000000;1962.00000000000;1991.00000000000;1975.00000000000;1982.00000000000;1965.00000000000;1949.00000000000;1958.00000000000;1951.00000000000;1944.00000000000;1956.00000000000;1958.00000000000;1932.00000000000;1939.00000000000;1940.00000000000;1957.00000000000;1961.00000000000;1933.00000000000;1915.00000000000;1919.00000000000;1901.00000000000;1910.00000000000;1911.00000000000;1923.00000000000;1968.00000000000;2042.00000000000;2106.00000000000;2101.00000000000;2116.00000000000;2153.00000000000;2174.00000000000;2127.00000000000;2119.00000000000;2102.00000000000;2091.00000000000;2063.00000000000;2020.00000000000;2025.00000000000;1996.00000000000;1955.00000000000;1946.00000000000;1886.00000000000;1831.00000000000;1798.00000000000;1764.00000000000;1703.00000000000;1648.00000000000;1597.00000000000;1535.00000000000;1520.00000000000;1485.00000000000;1469.00000000000;1458.00000000000;1446.00000000000;1445.00000000000;1462.00000000000;1485.00000000000;1515.00000000000;1558.00000000000;1592.00000000000;1638.00000000000;1655.00000000000;1727.00000000000;1758.00000000000;1791.00000000000;1871.00000000000;1940.00000000000;2031.00000000000;1980.00000000000;1998.00000000000;2085.00000000000;2123.00000000000;2119.00000000000;2134.00000000000;2138.00000000000;2101.00000000000;2105.00000000000;2081.00000000000;2073.00000000000;2051.00000000000;2030.00000000000;2022.00000000000;2032.00000000000;2032.00000000000;2028.00000000000;1999.00000000000;1994.00000000000;2007.00000000000;1991.00000000000;1988.00000000000;1976.00000000000;1979.00000000000;1959.00000000000;1968.00000000000;1947.00000000000;1952.00000000000;1969.00000000000;1919.00000000000;1951.00000000000;1940.00000000000;1935.00000000000;1931.00000000000;1920.00000000000;1940.00000000000;1947.00000000000;1956.00000000000;1943.00000000000;1947.00000000000;1953.00000000000;1954.00000000000;1955.00000000000;1959.00000000000;1931.00000000000;1939.00000000000;1948.00000000000;1946.00000000000;1975.00000000000;1960.00000000000;1931.00000000000;1907.00000000000;1939.00000000000;1931.00000000000;1925.00000000000
Accel Z : 2082.00000000000;2069.00000000000;2068.00000000000;2073.00000000000;2074.00000000000;2082.00000000000;2073.00000000000;2079.00000000000;2081.00000000000;2073.00000000000;2071.00000000000;2073.00000000000;2081.00000000000;2075.00000000000;2070.00000000000;2082.00000000000;2071.00000000000;2082.00000000000;2083.00000000000;2073.00000000000;2083.00000000000;2070.00000000000;2055.00000000000;2063.00000000000;2082.00000000000;2073.00000000000;2070.00000000000;2069.00000000000;2083.00000000000;2058.00000000000;2064.00000000000;2053.00000000000;2058.00000000000;2050.00000000000;2070.00000000000;2065.00000000000;2054.00000000000;2075.00000000000;2063.00000000000;2058.00000000000;2069.00000000000;2066.00000000000;2059.00000000000;2052.00000000000;2026.00000000000;2082.00000000000;2071.00000000000;2092.00000000000;2079.00000000000;2121.00000000000;2175.00000000000;2250.00000000000;2340.00000000000;2380.00000000000;2372.00000000000;2411.00000000000;2443.00000000000;2431.00000000000;2328.00000000000;2210.00000000000;2109.00000000000;1988.00000000000;1855.00000000000;1688.00000000000;1604.00000000000;1474.00000000000;1315.00000000000;1222.00000000000;1025.00000000000;848.000000000000;737.000000000000;646.000000000000;630.000000000000;609.000000000000;544.000000000000;592.000000000000;609.000000000000;665.000000000000;728.000000000000;773.000000000000;743.000000000000;745.000000000000;745.000000000000;735.000000000000;817.000000000000;929.000000000000;943.000000000000;946.000000000000;1061.00000000000;1199.00000000000;1304.00000000000;1343.00000000000;1427.00000000000;1662.00000000000;1832.00000000000;1812.00000000000;1871.00000000000;1977.00000000000;2012.00000000000;2140.00000000000;2295.00000000000;2392.00000000000;2366.00000000000;2411.00000000000;2434.00000000000;2388.00000000000;2383.00000000000;2342.00000000000;2318.00000000000;2283.00000000000;2275.00000000000;2238.00000000000;2196.00000000000;2166.00000000000;2164.00000000000;2132.00000000000;2103.00000000000;2085.00000000000;2097.00000000000;2078.00000000000;2074.00000000000;2048.00000000000;2030.00000000000;2061.00000000000;2060.00000000000;2051.00000000000;2062.00000000000;2045.00000000000;2037.00000000000;2048.00000000000;2047.00000000000;2046.00000000000;2048.00000000000;2034.00000000000;2026.00000000000;2043.00000000000;2059.00000000000;2059.00000000000;2035.00000000000;2041.00000000000;2047.00000000000;2072.00000000000;2051.00000000000;2042.00000000000;2057.00000000000;2033.00000000000;2057.00000000000;2024.00000000000;2050.00000000000;2050.00000000000
Gyro X : 2808.00000000000;2803.00000000000;2805.00000000000;2789.00000000000;2781.00000000000;2809.00000000000;2798.00000000000;2794.00000000000;2808.00000000000;2789.00000000000;2799.00000000000;2784.00000000000;2799.00000000000;2777.00000000000;2800.00000000000;2800.00000000000;2795.00000000000;2799.00000000000;2794.00000000000;2796.00000000000;2809.00000000000;2798.00000000000;2786.00000000000;2776.00000000000;2802.00000000000;2802.00000000000;2799.00000000000;2816.00000000000;2803.00000000000;2787.00000000000;2771.00000000000;2779.00000000000;2776.00000000000;2776.00000000000;2807.00000000000;2796.00000000000;2795.00000000000;2800.00000000000;2804.00000000000;2814.00000000000;2810.00000000000;2814.00000000000;2796.00000000000;2787.00000000000;2794.00000000000;2781.00000000000;2808.00000000000;2815.00000000000;2785.00000000000;2738.00000000000;2718.00000000000;2831.00000000000;2966.00000000000;3051.00000000000;3006.00000000000;2930.00000000000;2903.00000000000;2907.00000000000;2931.00000000000;2896.00000000000;2774.00000000000;2702.00000000000;2868.00000000000;2962.00000000000;2863.00000000000;2720.00000000000;2622.00000000000;2596.00000000000;2405.00000000000;2250.00000000000;2183.00000000000;2000.00000000000;1971.00000000000;1901.00000000000;1894.00000000000;1918.00000000000;1985.00000000000;2023.00000000000;2084.00000000000;2141.00000000000;2178.00000000000;2220.00000000000;2235.00000000000;2281.00000000000;2433.00000000000;2463.00000000000;2457.00000000000;2558.00000000000;2687.00000000000;2810.00000000000;2732.00000000000;2501.00000000000;2560.00000000000;2739.00000000000;2808.00000000000;2793.00000000000;2810.00000000000;2835.00000000000;2813.00000000000;2751.00000000000;2626.00000000000;2633.00000000000;2699.00000000000;2802.00000000000;2858.00000000000;2908.00000000000;2853.00000000000;2781.00000000000;2763.00000000000;2781.00000000000;2791.00000000000;2799.00000000000;2781.00000000000;2785.00000000000;2760.00000000000;2781.00000000000;2791.00000000000;2834.00000000000;2801.00000000000;2801.00000000000;2792.00000000000;2789.00000000000;2806.00000000000;2812.00000000000;2783.00000000000;2791.00000000000;2805.00000000000;2806.00000000000;2795.00000000000;2821.00000000000;2780.00000000000;2798.00000000000;2807.00000000000;2821.00000000000;2793.00000000000;2799.00000000000;2806.00000000000;2791.00000000000;2814.00000000000;2789.00000000000;2805.00000000000;2790.00000000000;2786.00000000000;2790.00000000000;2798.00000000000;2778.00000000000;2795.00000000000;2786.00000000000;2806.00000000000;2833.00000000000
Gyro Y : 1979.00000000000;1952.00000000000;1957.00000000000;1951.00000000000;1955.00000000000;1971.00000000000;1943.00000000000;1954.00000000000;1968.00000000000;1950.00000000000;1967.00000000000;1966.00000000000;1958.00000000000;1959.00000000000;1935.00000000000;1961.00000000000;1967.00000000000;1966.00000000000;1951.00000000000;1962.00000000000;1970.00000000000;1957.00000000000;1959.00000000000;1958.00000000000;1945.00000000000;1983.00000000000;1961.00000000000;1966.00000000000;1962.00000000000;1991.00000000000;1975.00000000000;1982.00000000000;1965.00000000000;1949.00000000000;1958.00000000000;1951.00000000000;1944.00000000000;1956.00000000000;1958.00000000000;1932.00000000000;1939.00000000000;1940.00000000000;1957.00000000000;1961.00000000000;1933.00000000000;1915.00000000000;1919.00000000000;1901.00000000000;1910.00000000000;1911.00000000000;1923.00000000000;1968.00000000000;2042.00000000000;2106.00000000000;2101.00000000000;2116.00000000000;2153.00000000000;2174.00000000000;2127.00000000000;2119.00000000000;2102.00000000000;2091.00000000000;2063.00000000000;2020.00000000000;2025.00000000000;1996.00000000000;1955.00000000000;1946.00000000000;1886.00000000000;1831.00000000000;1798.00000000000;1764.00000000000;1703.00000000000;1648.00000000000;1597.00000000000;1535.00000000000;1520.00000000000;1485.00000000000;1469.00000000000;1458.00000000000;1446.00000000000;1445.00000000000;1462.00000000000;1485.00000000000;1515.00000000000;1558.00000000000;1592.00000000000;1638.00000000000;1655.00000000000;1727.00000000000;1758.00000000000;1791.00000000000;1871.00000000000;1940.00000000000;2031.00000000000;1980.00000000000;1998.00000000000;2085.00000000000;2123.00000000000;2119.00000000000;2134.00000000000;2138.00000000000;2101.00000000000;2105.00000000000;2081.00000000000;2073.00000000000;2051.00000000000;2030.00000000000;2022.00000000000;2032.00000000000;2032.00000000000;2028.00000000000;1999.00000000000;1994.00000000000;2007.00000000000;1991.00000000000;1988.00000000000;1976.00000000000;1979.00000000000;1959.00000000000;1968.00000000000;1947.00000000000;1952.00000000000;1969.00000000000;1919.00000000000;1951.00000000000;1940.00000000000;1935.00000000000;1931.00000000000;1920.00000000000;1940.00000000000;1947.00000000000;1956.00000000000;1943.00000000000;1947.00000000000;1953.00000000000;1954.00000000000;1955.00000000000;1959.00000000000;1931.00000000000;1939.00000000000;1948.00000000000;1946.00000000000;1975.00000000000;1960.00000000000;1931.00000000000;1907.00000000000;1939.00000000000;1931.00000000000;1925.00000000000
Gyro Z : 2082.00000000000;2069.00000000000;2068.00000000000;2073.00000000000;2074.00000000000;2082.00000000000;2073.00000000000;2079.00000000000;2081.00000000000;2073.00000000000;2071.00000000000;2073.00000000000;2081.00000000000;2075.00000000000;2070.00000000000;2082.00000000000;2071.00000000000;2082.00000000000;2083.00000000000;2073.00000000000;2083.00000000000;2070.00000000000;2055.00000000000;2063.00000000000;2082.00000000000;2073.00000000000;2070.00000000000;2069.00000000000;2083.00000000000;2058.00000000000;2064.00000000000;2053.00000000000;2058.00000000000;2050.00000000000;2070.00000000000;2065.00000000000;2054.00000000000;2075.00000000000;2063.00000000000;2058.00000000000;2069.00000000000;2066.00000000000;2059.00000000000;2052.00000000000;2026.00000000000;2082.00000000000;2071.00000000000;2092.00000000000;2079.00000000000;2121.00000000000;2175.00000000000;2250.00000000000;2340.00000000000;2380.00000000000;2372.00000000000;2411.00000000000;2443.00000000000;2431.00000000000;2328.00000000000;2210.00000000000;2109.00000000000;1988.00000000000;1855.00000000000;1688.00000000000;1604.00000000000;1474.00000000000;1315.00000000000;1222.00000000000;1025.00000000000;848.000000000000;737.000000000000;646.000000000000;630.000000000000;609.000000000000;544.000000000000;592.000000000000;609.000000000000;665.000000000000;728.000000000000;773.000000000000;743.000000000000;745.000000000000;745.000000000000;735.000000000000;817.000000000000;929.000000000000;943.000000000000;946.000000000000;1061.00000000000;1199.00000000000;1304.00000000000;1343.00000000000;1427.00000000000;1662.00000000000;1832.00000000000;1812.00000000000;1871.00000000000;1977.00000000000;2012.00000000000;2140.00000000000;2295.00000000000;2392.00000000000;2366.00000000000;2411.00000000000;2434.00000000000;2388.00000000000;2383.00000000000;2342.00000000000;2318.00000000000;2283.00000000000;2275.00000000000;2238.00000000000;2196.00000000000;2166.00000000000;2164.00000000000;2132.00000000000;2103.00000000000;2085.00000000000;2097.00000000000;2078.00000000000;2074.00000000000;2048.00000000000;2030.00000000000;2061.00000000000;2060.00000000000;2051.00000000000;2062.00000000000;2045.00000000000;2037.00000000000;2048.00000000000;2047.00000000000;2046.00000000000;2048.00000000000;2034.00000000000;2026.00000000000;2043.00000000000;2059.00000000000;2059.00000000000;2035.00000000000;2041.00000000000;2047.00000000000;2072.00000000000;2051.00000000000;2042.00000000000;2057.00000000000;2033.00000000000;2057.00000000000;2024.00000000000;2050.00000000000;2050.00000000000
