COMMAND 3 SAMPLE 1
Accel X : 2842.00000000000;2843.00000000000;2835.00000000000;2847.00000000000;2842.00000000000;2851.00000000000;2844.00000000000;2833.00000000000;2835.00000000000;2845.00000000000;2832.00000000000;2835.00000000000;2827.00000000000;2821.00000000000;2851.00000000000;2823.00000000000;2843.00000000000;2842.00000000000;2838.00000000000;2826.00000000000;2830.00000000000;2836.00000000000;2839.00000000000;2826.00000000000;2815.00000000000;2844.00000000000;2848.00000000000;2838.00000000000;2806.00000000000;2836.00000000000;2851.00000000000;2843.00000000000;2830.00000000000;2818.00000000000;2850.00000000000;2836.00000000000;2814.00000000000;2835.00000000000;2819.00000000000;2843.00000000000;2842.00000000000;2841.00000000000;2864.00000000000;2846.00000000000;2824.00000000000;2833.00000000000;2813.00000000000;2836.00000000000;2856.00000000000;2844.00000000000;2831.00000000000;2822.00000000000;2843.00000000000;2845.00000000000;2883.00000000000;2883.00000000000;2955.00000000000;2993.00000000000;3031.00000000000;3008.00000000000;3063.00000000000;3073.00000000000;3122.00000000000;3155.00000000000;3130.00000000000;3083.00000000000;3092.00000000000;3014.00000000000;2945.00000000000;2934.00000000000;2871.00000000000;2769.00000000000;2709.00000000000;2483.00000000000;2291.00000000000;2220.00000000000;2115.00000000000;1924.00000000000;1747.00000000000;1614.00000000000;1587.00000000000;1589.00000000000;1566.00000000000;1489.00000000000;1402.00000000000;1451.00000000000;1495.00000000000;1498.00000000000;1489.00000000000;1446.00000000000;1486.00000000000;1575.00000000000;1640.00000000000;1633.00000000000;1708.00000000000;1813.00000000000;1922.00000000000;2027.00000000000;2131.00000000000;2203.00000000000;2281.00000000000;2390.00000000000;2470.00000000000;2568.00000000000;2669.00000000000;2796.00000000000;2945.00000000000;3180.00000000000;3222.00000000000;3161.00000000000;3087.00000000000;3025.00000000000;3010.00000000000;3004.00000000000;3040.00000000000;3078.00000000000;3092.00000000000;3041.00000000000;2962.00000000000;2923.00000000000;2884.00000000000;2857.00000000000;2854.00000000000;2840.00000000000;2821.00000000000;2804.00000000000;2806.00000000000;2769.00000000000;2775.00000000000;2805.00000000000;2803.00000000000;2833.00000000000;2813.00000000000;2825.00000000000;2817.00000000000;2818.00000000000;2838.00000000000;2849.00000000000;2843.00000000000;2849.00000000000;2824.00000000000;2845.00000000000;2827.00000000000;2822.00000000000;2842.00000000000;2838.00000000000;2816.00000000000;2827.00000000000;2827.00000000000;2841.00000000000
Accel Y : 1804.00000000000;1811.00000000000;1801.00000000000;1781.00000000000;1812.00000000000;1814.00000000000;1819.00000000000;1799.00000000000;1792.00000000000;1787.00000000000;1805.00000000000;1804.00000000000;1824.00000000000;1785.00000000000;1795.00000000000;1816.00000000000;1806.00000000000;1827.00000000000;1802.00000000000;1802.00000000000;1811.00000000000;1815.00000000000;1797.00000000000;1807.00000000000;1792.00000000000;1791.00000000000;1813.00000000000;1782.00000000000;1807.00000000000;1803.00000000000;1811.00000000000;1790.00000000000;1818.00000000000;1797.00000000000;1809.00000000000;1819.00000000000;1808.00000000000;1783.00000000000;1820.00000000000;1816.00000000000;1828.00000000000;1813.00000000000;1803.00000000000;1818.00000000000;1812.00000000000;1814.00000000000;1799.00000000000;1811.00000000000;1801.00000000000;1817.00000000000;1790.00000000000;1781.00000000000;1813.00000000000;1808.00000000000;1815.00000000000;1792.00000000000;1761.00000000000;1731.00000000000;1692.00000000000;1629.00000000000;1601.00000000000;1556.00000000000;1533.00000000000;1564.00000000000;1543.00000000000;1538.00000000000;1531.00000000000;1605.00000000000;1687.00000000000;1785.00000000000;1847.00000000000;1921.00000000000;1989.00000000000;2112.00000000000;2240.00000000000;2339.00000000000;2365.00000000000;2406.00000000000;2420.00000000000;2417.00000000000;2411.00000000000;2374.00000000000;2356.00000000000;2383.00000000000;2373.00000000000;2280.00000000000;2275.00000000000;2342.00000000000;2375.00000000000;2352.00000000000;2299.00000000000;2309.00000000000;2325.00000000000;2318.00000000000;2286.00000000000;2279.00000000000;2361.00000000000;2362.00000000000;2226.00000000000;2229.00000000000;2250.00000000000;2118.00000000000;1950.00000000000;1919.00000000000;1988.00000000000;1866.00000000000;1734.00000000000;1754.00000000000;1687.00000000000;1614.00000000000;1558.00000000000;1562.00000000000;1531.00000000000;1517.00000000000;1530.00000000000;1556.00000000000;1577.00000000000;1626.00000000000;1663.00000000000;1692.00000000000;1729.00000000000;1759.00000000000;1789.00000000000;1788.00000000000;1803.00000000000;1806.00000000000;1815.00000000000;1808.00000000000;1782.00000000000;1754.00000000000;1769.00000000000;1759.00000000000;1779.00000000000;1782.00000000000;1772.00000000000;1757.00000000000;1779.00000000000;1781.00000000000;1765.00000000000;1754.00000000000;1773.00000000000;1772.00000000000;1774.00000000000;1769.00000000000;1767.00000000000;1786.00000000000;1770.00000000000;1763.00000000000;1780.00000000000;1757.00000000000
Accel Z : 1823.00000000000;1802.00000000000;1806.00000000000;1813.00000000000;1815.00000000000;1822.00000000000;1815.00000000000;1814.00000000000;1812.00000000000;1813.00000000000;1809.00000000000;1801.00000000000;1796.00000000000;1815.00000000000;1793.00000000000;1800.00000000000;1812.00000000000;1810.00000000000;1799.00000000000;1772.00000000000;1804.00000000000;1810.00000000000;1814.00000000000;1802.00000000000;1804.00000000000;1806.00000000000;1811.00000000000;1789.00000000000;1791.00000000000;1830.00000000000;1807.00000000000;1806.00000000000;1801.00000000000;1793.00000000000;1813.00000000000;1807.00000000000;1816.00000000000;1814.00000000000;1812.00000000000;1805.00000000000;1808.00000000000;1815.00000000000;1830.00000000000;1811.00000000000;1800.00000000000;1842.00000000000;1803.00000000000;1835.00000000000;1796.00000000000;1816.00000000000;1793.00000000000;1798.00000000000;1827.00000000000;1815.00000000000;1807.00000000000;1799.00000000000;1826.00000000000;1830.00000000000;1803.00000000000;1807.00000000000;1848.00000000000;1829.00000000000;1867.00000000000;1862.00000000000;1860.00000000000;1835.00000000000;1866.00000000000;1922.00000000000;1947.00000000000;2011.00000000000;2016.00000000000;2000.00000000000;2018.00000000000;2109.00000000000;2223.00000000000;2343.00000000000;2363.00000000000;2390.00000000000;2448.00000000000;2533.00000000000;2594.00000000000;2640.00000000000;2682.00000000000;2752.00000000000;2774.00000000000;2800.00000000000;2833.00000000000;2876.00000000000;2861.00000000000;2823.00000000000;2837.00000000000;2841.00000000000;2814.00000000000;2771.00000000000;2719.00000000000;2652.00000000000;2590.00000000000;2471.00000000000;2363.00000000000;2304.00000000000;2186.00000000000;2061.00000000000;2010.00000000000;1926.00000000000;1834.00000000000;1675.00000000000;1594.00000000000;1545.00000000000;1481.00000000000;1475.00000000000;1515.00000000000;1551.00000000000;1558.00000000000;1566.00000000000;1594.00000000000;1616.00000000000;1633.00000000000;1687.00000000000;1713.00000000000;1762.00000000000;1751.00000000000;1785.00000000000;1833.00000000000;1823.00000000000;1821.00000000000;1823.00000000000;1847.00000000000;1841.00000000000;1842.00000000000;1848.00000000000;1835.00000000000;1846.00000000000;1852.00000000000;1867.00000000000;1849.00000000000;1841.00000000000;1837.00000000000;1842.00000000000;1820.00000000000;1855.00000000000;1826.00000000000;1845.00000000000;1844.00000000000;1806.00000000000;1808.00000000000;1817.00000000000;1824.00000000000;1817.00000000000;1816.00000000000;1807.00000000000
Gyro X : 2842.00000000000;2843.00000000000;2835.00000000000;2847.00000000000;2842.00000000000;2851.00000000000;2844.00000000000;2833.00000000000;2835.00000000000;2845.00000000000;2832.00000000000;2835.00000000000;2827.00000000000;2821.00000000000;2851.00000000000;2823.00000000000;2843.00000000000;2842.00000000000;2838.00000000000;2826.00000000000;2830.00000000000;2836.00000000000;2839.00000000000;2826.00000000000;2815.00000000000;2844.00000000000;2848.00000000000;2838.00000000000;2806.00000000000;2836.00000000000;2851.00000000000;2843.00000000000;2830.00000000000;2818.00000000000;2850.00000000000;2836.00000000000;2814.00000000000;2835.00000000000;2819.00000000000;2843.00000000000;2842.00000000000;2841.00000000000;2864.00000000000;2846.00000000000;2824.00000000000;2833.00000000000;2813.00000000000;2836.00000000000;2856.00000000000;2844.00000000000;2831.00000000000;2822.00000000000;2843.00000000000;2845.00000000000;2883.00000000000;2883.00000000000;2955.00000000000;2993.00000000000;3031.00000000000;3008.00000000000;3063.00000000000;3073.00000000000;3122.00000000000;3155.00000000000;3130.00000000000;3083.00000000000;3092.00000000000;3014.00000000000;2945.00000000000;2934.00000000000;2871.00000000000;2769.00000000000;2709.00000000000;2483.00000000000;2291.00000000000;2220.00000000000;2115.00000000000;1924.00000000000;1747.00000000000;1614.00000000000;1587.00000000000;1589.00000000000;1566.00000000000;1489.00000000000;1402.00000000000;1451.00000000000;1495.00000000000;1498.00000000000;1489.00000000000;1446.00000000000;1486.00000000000;1575.00000000000;1640.00000000000;1633.00000000000;1708.00000000000;1813.00000000000;1922.00000000000;2027.00000000000;2131.00000000000;2203.00000000000;2281.00000000000;2390.00000000000;2470.00000000000;2568.00000000000;2669.00000000000;2796.00000000000;2945.00000000000;3180.00000000000;3222.00000000000;3161.00000000000;3087.00000000000;3025.00000000000;3010.00000000000;3004.00000000000;3040.00000000000;3078.00000000000;3092.00000000000;3041.00000000000;2962.00000000000;2923.00000000000;2884.00000000000;2857.00000000000;2854.00000000000;2840.00000000000;2821.00000000000;2804.00000000000;2806.00000000000;2769.00000000000;2775.00000000000;2805.00000000000;2803.00000000000;2833.00000000000;2813.00000000000;2825.00000000000;2817.00000000000;2818.00000000000;2838.00000000000;2849.00000000000;2843.00000000000;2849.00000000000;2824.00000000000;2845.00000000000;2827.00000000000;2822.00000000000;2842.00000000000;2838.00000000000;2816.00000000000;2827.00000000000;2827.00000000000;2841.00000000000
Gyro Y : 1804.00000000000;1811.00000000000;1801.00000000000;1781.00000000000;1812.00000000000;1814.00000000000;1819.00000000000;1799.00000000000;1792.00000000000;1787.00000000000;1805.00000000000;1804.00000000000;1824.00000000000;1785.00000000000;1795.00000000000;1816.00000000000;1806.00000000000;1827.00000000000;1802.00000000000;1802.00000000000;1811.00000000000;1815.00000000000;1797.00000000000;1807.00000000000;1792.00000000000;1791.00000000000;1813.00000000000;1782.00000000000;1807.00000000000;1803.00000000000;1811.00000000000;1790.00000000000;1818.00000000000;1797.00000000000;1809.00000000000;1819.00000000000;1808.00000000000;1783.00000000000;1820.00000000000;1816.00000000000;1828.00000000000;1813.00000000000;1803.00000000000;1818.00000000000;1812.00000000000;1814.00000000000;1799.00000000000;1811.00000000000;1801.00000000000;1817.00000000000;1790.00000000000;1781.00000000000;1813.00000000000;1808.00000000000;1815.00000000000;1792.00000000000;1761.00000000000;1731.00000000000;1692.00000000000;1629.00000000000;1601.00000000000;1556.00000000000;1533.00000000000;1564.00000000000;1543.00000000000;1538.00000000000;1531.00000000000;1605.00000000000;1687.00000000000;1785.00000000000;1847.00000000000;1921.00000000000;1989.00000000000;2112.00000000000;2240.00000000000;2339.00000000000;2365.00000000000;2406.00000000000;2420.00000000000;2417.00000000000;2411.00000000000;2374.00000000000;2356.00000000000;2383.00000000000;2373.00000000000;2280.00000000000;2275.00000000000;2342.00000000000;2375.00000000000;2352.00000000000;2299.00000000000;2309.00000000000;2325.00000000000;2318.00000000000;2286.00000000000;2279.00000000000;2361.00000000000;2362.00000000000;2226.00000000000;2229.00000000000;2250.00000000000;2118.00000000000;1950.00000000000;1919.00000000000;1988.00000000000;1866.00000000000;1734.00000000000;1754.00000000000;1687.00000000000;1614.00000000000;1558.00000000000;1562.00000000000;1531.00000000000;1517.00000000000;1530.00000000000;1556.00000000000;1577.00000000000;1626.00000000000;1663.00000000000;1692.00000000000;1729.00000000000;1759.00000000000;1789.00000000000;1788.00000000000;1803.00000000000;1806.00000000000;1815.00000000000;1808.00000000000;1782.00000000000;1754.00000000000;1769.00000000000;1759.00000000000;1779.00000000000;1782.00000000000;1772.00000000000;1757.00000000000;1779.00000000000;1781.00000000000;1765.00000000000;1754.00000000000;1773.00000000000;1772.00000000000;1774.00000000000;1769.00000000000;1767.00000000000;1786.00000000000;1770.00000000000;1763.00000000000;1780.00000000000;1757.00000000000
Gyro Z : 1823.00000000000;1802.00000000000;1806.00000000000;1813.00000000000;1815.00000000000;1822.00000000000;1815.00000000000;1814.00000000000;1812.00000000000;1813.00000000000;1809.00000000000;1801.00000000000;1796.00000000000;1815.00000000000;1793.00000000000;1800.00000000000;1812.00000000000;1810.00000000000;1799.00000000000;1772.00000000000;1804.00000000000;1810.00000000000;1814.00000000000;1802.00000000000;1804.00000000000;1806.00000000000;1811.00000000000;1789.00000000000;1791.00000000000;1830.00000000000;1807.00000000000;1806.00000000000;1801.00000000000;1793.00000000000;1813.00000000000;1807.00000000000;1816.00000000000;1814.00000000000;1812.00000000000;1805.00000000000;1808.00000000000;1815.00000000000;1830.00000000000;1811.00000000000;1800.00000000000;1842.00000000000;1803.00000000000;1835.00000000000;1796.00000000000;1816.00000000000;1793.00000000000;1798.00000000000;1827.00000000000;1815.00000000000;1807.00000000000;1799.00000000000;1826.00000000000;1830.00000000000;1803.00000000000;1807.00000000000;1848.00000000000;1829.00000000000;1867.00000000000;1862.00000000000;1860.00000000000;1835.00000000000;1866.00000000000;1922.00000000000;1947.00000000000;2011.00000000000;2016.00000000000;2000.00000000000;2018.00000000000;2109.00000000000;2223.00000000000;2343.00000000000;2363.00000000000;2390.00000000000;2448.00000000000;2533.00000000000;2594.00000000000;2640.00000000000;2682.00000000000;2752.00000000000;2774.00000000000;2800.00000000000;2833.00000000000;2876.00000000000;2861.00000000000;2823.00000000000;2837.00000000000;2841.00000000000;2814.00000000000;2771.00000000000;2719.00000000000;2652.00000000000;2590.00000000000;2471.00000000000;2363.00000000000;2304.00000000000;2186.00000000000;2061.00000000000;2010.00000000000;1926.00000000000;1834.00000000000;1675.00000000000;1594.00000000000;1545.00000000000;1481.00000000000;1475.00000000000;1515.00000000000;1551.00000000000;1558.00000000000;1566.00000000000;1594.00000000000;1616.00000000000;1633.00000000000;1687.00000000000;1713.00000000000;1762.00000000000;1751.00000000000;1785.00000000000;1833.00000000000;1823.00000000000;1821.00000000000;1823.00000000000;1847.00000000000;1841.00000000000;1842.00000000000;1848.00000000000;1835.00000000000;1846.00000000000;1852.00000000000;1867.00000000000;1849.00000000000;1841.00000000000;1837.00000000000;1842.00000000000;1820.00000000000;1855.00000000000;1826.00000000000;1845.00000000000;1844.00000000000;1806.00000000000;1808.00000000000;1817.00000000000;1824.00000000000;1817.00000000000;1816.00000000000;1807.00000000000
