COMMAND 4 SAMPLE 1
Accel X : 2826.00000000000;2833.00000000000;2829.00000000000;2836.00000000000;2846.00000000000;2826.00000000000;2860.00000000000;2857.00000000000;2831.00000000000;2827.00000000000;2850.00000000000;2835.00000000000;2855.00000000000;2857.00000000000;2842.00000000000;2848.00000000000;2844.00000000000;2835.00000000000;2819.00000000000;2849.00000000000;2848.00000000000;2854.00000000000;2834.00000000000;2845.00000000000;2836.00000000000;2850.00000000000;2830.00000000000;2836.00000000000;2829.00000000000;2806.00000000000;2831.00000000000;2810.00000000000;2828.00000000000;2831.00000000000;2834.00000000000;2850.00000000000;2862.00000000000;2832.00000000000;2846.00000000000;2877.00000000000;2840.00000000000;2825.00000000000;2764.00000000000;2819.00000000000;2815.00000000000;2867.00000000000;3012.00000000000;3270.00000000000;3444.00000000000;3486.00000000000;3514.00000000000;3518.00000000000;3527.00000000000;3486.00000000000;3350.00000000000;3228.00000000000;3021.00000000000;2729.00000000000;2541.00000000000;2388.00000000000;2265.00000000000;2144.00000000000;2110.00000000000;2090.00000000000;2091.00000000000;2102.00000000000;2138.00000000000;2153.00000000000;2243.00000000000;2279.00000000000;2314.00000000000;2335.00000000000;2373.00000000000;2441.00000000000;2441.00000000000;2482.00000000000;2499.00000000000;2509.00000000000;2519.00000000000;2480.00000000000;2439.00000000000;2398.00000000000;2362.00000000000;2372.00000000000;2319.00000000000;2270.00000000000;2267.00000000000;2349.00000000000;2433.00000000000;2396.00000000000;2421.00000000000;2476.00000000000;2582.00000000000;2689.00000000000;2752.00000000000;2808.00000000000;2992.00000000000;3179.00000000000;3223.00000000000;3183.00000000000;3218.00000000000;3231.00000000000;3182.00000000000;3105.00000000000;3058.00000000000;3007.00000000000;2979.00000000000;2920.00000000000;2879.00000000000;2846.00000000000;2789.00000000000;2802.00000000000;2778.00000000000;2789.00000000000;2792.00000000000;2784.00000000000;2769.00000000000;2759.00000000000;2797.00000000000;2781.00000000000;2799.00000000000;2794.00000000000;2805.00000000000;2836.00000000000;2837.00000000000;2855.00000000000;2828.00000000000;2821.00000000000;2806.00000000000;2825.00000000000;2833.00000000000;2824.00000000000;2793.00000000000;2814.00000000000;2795.00000000000;2811.00000000000;2805.00000000000;2806.00000000000;2793.00000000000;2797.00000000000;2796.00000000000;2813.00000000000;2800.00000000000;2797.00000000000;2783.00000000000;2807.00000000000;2815.00000000000;2812.00000000000;2794.00000000000;2828.00000000000
Accel Y : 1895.00000000000;1880.00000000000;1879.00000000000;1892.00000000000;1904.00000000000;1886.00000000000;1887.00000000000;1882.00000000000;1881.00000000000;1895.00000000000;1887.00000000000;1899.00000000000;1878.00000000000;1906.00000000000;1902.00000000000;1865.00000000000;1884.00000000000;1881.00000000000;1880.00000000000;1874.00000000000;1891.00000000000;1892.00000000000;1891.00000000000;1883.00000000000;1883.00000000000;1900.00000000000;1894.00000000000;1883.00000000000;1885.00000000000;1891.00000000000;1896.00000000000;1875.00000000000;1906.00000000000;1861.00000000000;1865.00000000000;1893.00000000000;1895.00000000000;1884.00000000000;1870.00000000000;1863.00000000000;1854.00000000000;1878.00000000000;1862.00000000000;1849.00000000000;1737.00000000000;1692.00000000000;1647.00000000000;1565.00000000000;1516.00000000000;1443.00000000000;1415.00000000000;1368.00000000000;1425.00000000000;1456.00000000000;1520.00000000000;1607.00000000000;1717.00000000000;1814.00000000000;1865.00000000000;1876.00000000000;1858.00000000000;1861.00000000000;1817.00000000000;1747.00000000000;1693.00000000000;1658.00000000000;1580.00000000000;1519.00000000000;1430.00000000000;1399.00000000000;1311.00000000000;1303.00000000000;1284.00000000000;1284.00000000000;1242.00000000000;1260.00000000000;1289.00000000000;1335.00000000000;1371.00000000000;1433.00000000000;1489.00000000000;1533.00000000000;1533.00000000000;1580.00000000000;1581.00000000000;1568.00000000000;1565.00000000000;1559.00000000000;1517.00000000000;1566.00000000000;1602.00000000000;1604.00000000000;1579.00000000000;1603.00000000000;1655.00000000000;1635.00000000000;1612.00000000000;1643.00000000000;1671.00000000000;1635.00000000000;1653.00000000000;1694.00000000000;1706.00000000000;1695.00000000000;1740.00000000000;1762.00000000000;1797.00000000000;1805.00000000000;1823.00000000000;1849.00000000000;1874.00000000000;1882.00000000000;1881.00000000000;1922.00000000000;1897.00000000000;1892.00000000000;1893.00000000000;1853.00000000000;1859.00000000000;1871.00000000000;1857.00000000000;1835.00000000000;1878.00000000000;1846.00000000000;1841.00000000000;1860.00000000000;1851.00000000000;1841.00000000000;1867.00000000000;1846.00000000000;1848.00000000000;1880.00000000000;1872.00000000000;1871.00000000000;1873.00000000000;1855.00000000000;1884.00000000000;1879.00000000000;1861.00000000000;1856.00000000000;1865.00000000000;1860.00000000000;1873.00000000000;1865.00000000000;1866.00000000000;1877.00000000000;1877.00000000000;1859.00000000000;1869.00000000000;1876.00000000000
Accel Z : 1903.00000000000;1906.00000000000;1913.00000000000;1928.00000000000;1935.00000000000;1914.00000000000;1903.00000000000;1908.00000000000;1902.00000000000;1902.00000000000;1933.00000000000;1913.00000000000;1909.00000000000;1924.00000000000;1919.00000000000;1919.00000000000;1936.00000000000;1919.00000000000;1919.00000000000;1905.00000000000;1902.00000000000;1932.00000000000;1927.00000000000;1918.00000000000;1921.00000000000;1883.00000000000;1915.00000000000;1923.00000000000;1925.00000000000;1915.00000000000;1919.00000000000;1922.00000000000;1921.00000000000;1917.00000000000;1904.00000000000;1919.00000000000;1904.00000000000;1908.00000000000;1891.00000000000;1872.00000000000;1822.00000000000;1816.00000000000;1954.00000000000;2092.00000000000;2019.00000000000;1951.00000000000;1773.00000000000;1700.00000000000;1679.00000000000;1685.00000000000;1581.00000000000;1491.00000000000;1438.00000000000;1423.00000000000;1387.00000000000;1382.00000000000;1425.00000000000;1443.00000000000;1516.00000000000;1564.00000000000;1596.00000000000;1617.00000000000;1671.00000000000;1688.00000000000;1668.00000000000;1699.00000000000;1697.00000000000;1721.00000000000;1710.00000000000;1715.00000000000;1732.00000000000;1782.00000000000;1739.00000000000;1763.00000000000;1725.00000000000;1768.00000000000;1770.00000000000;1795.00000000000;1831.00000000000;1806.00000000000;1789.00000000000;1780.00000000000;1735.00000000000;1820.00000000000;1817.00000000000;1820.00000000000;1814.00000000000;1808.00000000000;1821.00000000000;1802.00000000000;1834.00000000000;1870.00000000000;1963.00000000000;2027.00000000000;2035.00000000000;2039.00000000000;2125.00000000000;2226.00000000000;2223.00000000000;2231.00000000000;2261.00000000000;2259.00000000000;2243.00000000000;2221.00000000000;2205.00000000000;2169.00000000000;2152.00000000000;2116.00000000000;2065.00000000000;2034.00000000000;2005.00000000000;1971.00000000000;1964.00000000000;1954.00000000000;1942.00000000000;1957.00000000000;1946.00000000000;1974.00000000000;1963.00000000000;1981.00000000000;1994.00000000000;2013.00000000000;2000.00000000000;2008.00000000000;2018.00000000000;2011.00000000000;2018.00000000000;2027.00000000000;2021.00000000000;2037.00000000000;2019.00000000000;2018.00000000000;2008.00000000000;2013.00000000000;1975.00000000000;1989.00000000000;1979.00000000000;2009.00000000000;2000.00000000000;2014.00000000000;1978.00000000000;2003.00000000000;2007.00000000000;1997.00000000000;2007.00000000000;2005.00000000000;1989.00000000000;2007.00000000000;2025.00000000000;2029.00000000000
Gyro X : 2826.00000000000;2833.00000000000;2829.00000000000;2836.00000000000;2846.00000000000;2826.00000000000;2860.00000000000;2857.00000000000;2831.00000000000;2827.00000000000;2850.00000000000;2835.00000000000;2855.00000000000;2857.00000000000;2842.00000000000;2848.00000000000;2844.00000000000;2835.00000000000;2819.00000000000;2849.00000000000;2848.00000000000;2854.00000000000;2834.00000000000;2845.00000000000;2836.00000000000;2850.00000000000;2830.00000000000;2836.00000000000;2829.00000000000;2806.00000000000;2831.00000000000;2810.00000000000;2828.00000000000;2831.00000000000;2834.00000000000;2850.00000000000;2862.00000000000;2832.00000000000;2846.00000000000;2877.00000000000;2840.00000000000;2825.00000000000;2764.00000000000;2819.00000000000;2815.00000000000;2867.00000000000;3012.00000000000;3270.00000000000;3444.00000000000;3486.00000000000;3514.00000000000;3518.00000000000;3527.00000000000;3486.00000000000;3350.00000000000;3228.00000000000;3021.00000000000;2729.00000000000;2541.00000000000;2388.00000000000;2265.00000000000;2144.00000000000;2110.00000000000;2090.00000000000;2091.00000000000;2102.00000000000;2138.00000000000;2153.00000000000;2243.00000000000;2279.00000000000;2314.00000000000;2335.00000000000;2373.00000000000;2441.00000000000;2441.00000000000;2482.00000000000;2499.00000000000;2509.00000000000;2519.00000000000;2480.00000000000;2439.00000000000;2398.00000000000;2362.00000000000;2372.00000000000;2319.00000000000;2270.00000000000;2267.00000000000;2349.00000000000;2433.00000000000;2396.00000000000;2421.00000000000;2476.00000000000;2582.00000000000;2689.00000000000;2752.00000000000;2808.00000000000;2992.00000000000;3179.00000000000;3223.00000000000;3183.00000000000;3218.00000000000;3231.00000000000;3182.00000000000;3105.00000000000;3058.00000000000;3007.00000000000;2979.00000000000;2920.00000000000;2879.00000000000;2846.00000000000;2789.00000000000;2802.00000000000;2778.00000000000;2789.00000000000;2792.00000000000;2784.00000000000;2769.00000000000;2759.00000000000;2797.00000000000;2781.00000000000;2799.00000000000;2794.00000000000;2805.00000000000;2836.00000000000;2837.00000000000;2855.00000000000;2828.00000000000;2821.00000000000;2806.00000000000;2825.00000000000;2833.00000000000;2824.00000000000;2793.00000000000;2814.00000000000;2795.00000000000;2811.00000000000;2805.00000000000;2806.00000000000;2793.00000000000;2797.00000000000;2796.00000000000;2813.00000000000;2800.00000000000;2797.00000000000;2783.00000000000;2807.00000000000;2815.00000000000;2812.00000000000;2794.00000000000;2828.00000000000
Gyro Y : 1895.00000000000;1880.00000000000;1879.00000000000;1892.00000000000;1904.00000000000;1886.00000000000;1887.00000000000;1882.00000000000;1881.00000000000;1895.00000000000;1887.00000000000;1899.00000000000;1878.00000000000;1906.00000000000;1902.00000000000;1865.00000000000;1884.00000000000;1881.00000000000;1880.00000000000;1874.00000000000;1891.00000000000;1892.00000000000;1891.00000000000;1883.00000000000;1883.00000000000;1900.00000000000;1894.00000000000;1883.00000000000;1885.00000000000;1891.00000000000;1896.00000000000;1875.00000000000;1906.00000000000;1861.00000000000;1865.00000000000;1893.00000000000;1895.00000000000;1884.00000000000;1870.00000000000;1863.00000000000;1854.00000000000;1878.00000000000;1862.00000000000;1849.00000000000;1737.00000000000;1692.00000000000;1647.00000000000;1565.00000000000;1516.00000000000;1443.00000000000;1415.00000000000;1368.00000000000;1425.00000000000;1456.00000000000;1520.00000000000;1607.00000000000;1717.00000000000;1814.00000000000;1865.00000000000;1876.00000000000;1858.00000000000;1861.00000000000;1817.00000000000;1747.00000000000;1693.00000000000;1658.00000000000;1580.00000000000;1519.00000000000;1430.00000000000;1399.00000000000;1311.00000000000;1303.00000000000;1284.00000000000;1284.00000000000;1242.00000000000;1260.00000000000;1289.00000000000;1335.00000000000;1371.00000000000;1433.00000000000;1489.00000000000;1533.00000000000;1533.00000000000;1580.00000000000;1581.00000000000;1568.00000000000;1565.00000000000;1559.00000000000;1517.00000000000;1566.00000000000;1602.00000000000;1604.00000000000;1579.00000000000;1603.00000000000;1655.00000000000;1635.00000000000;1612.00000000000;1643.00000000000;1671.00000000000;1635.00000000000;1653.00000000000;1694.00000000000;1706.00000000000;1695.00000000000;1740.00000000000;1762.00000000000;1797.00000000000;1805.00000000000;1823.00000000000;1849.00000000000;1874.00000000000;1882.00000000000;1881.00000000000;1922.00000000000;1897.00000000000;1892.00000000000;1893.00000000000;1853.00000000000;1859.00000000000;1871.00000000000;1857.00000000000;1835.00000000000;1878.00000000000;1846.00000000000;1841.00000000000;1860.00000000000;1851.00000000000;1841.00000000000;1867.00000000000;1846.00000000000;1848.00000000000;1880.00000000000;1872.00000000000;1871.00000000000;1873.00000000000;1855.00000000000;1884.00000000000;1879.00000000000;1861.00000000000;1856.00000000000;1865.00000000000;1860.00000000000;1873.00000000000;1865.00000000000;1866.00000000000;1877.00000000000;1877.00000000000;1859.00000000000;1869.00000000000;1876.00000000000
Gyro Z : 1903.00000000000;1906.00000000000;1913.00000000000;1928.00000000000;1935.00000000000;1914.00000000000;1903.00000000000;1908.00000000000;1902.00000000000;1902.00000000000;1933.00000000000;1913.00000000000;1909.00000000000;1924.00000000000;1919.00000000000;1919.00000000000;1936.00000000000;1919.00000000000;1919.00000000000;1905.00000000000;1902.00000000000;1932.00000000000;1927.00000000000;1918.00000000000;1921.00000000000;1883.00000000000;1915.00000000000;1923.00000000000;1925.00000000000;1915.00000000000;1919.00000000000;1922.00000000000;1921.00000000000;1917.00000000000;1904.00000000000;1919.00000000000;1904.00000000000;1908.00000000000;1891.00000000000;1872.00000000000;1822.00000000000;1816.00000000000;1954.00000000000;2092.00000000000;2019.00000000000;1951.00000000000;1773.00000000000;1700.00000000000;1679.00000000000;1685.00000000000;1581.00000000000;1491.00000000000;1438.00000000000;1423.00000000000;1387.00000000000;1382.00000000000;1425.00000000000;1443.00000000000;1516.00000000000;1564.00000000000;1596.00000000000;1617.00000000000;1671.00000000000;1688.00000000000;1668.00000000000;1699.00000000000;1697.00000000000;1721.00000000000;1710.00000000000;1715.00000000000;1732.00000000000;1782.00000000000;1739.00000000000;1763.00000000000;1725.00000000000;1768.00000000000;1770.00000000000;1795.00000000000;1831.00000000000;1806.00000000000;1789.00000000000;1780.00000000000;1735.00000000000;1820.00000000000;1817.00000000000;1820.00000000000;1814.00000000000;1808.00000000000;1821.00000000000;1802.00000000000;1834.00000000000;1870.00000000000;1963.00000000000;2027.00000000000;2035.00000000000;2039.00000000000;2125.00000000000;2226.00000000000;2223.00000000000;2231.00000000000;2261.00000000000;2259.00000000000;2243.00000000000;2221.00000000000;2205.00000000000;2169.00000000000;2152.00000000000;2116.00000000000;2065.00000000000;2034.00000000000;2005.00000000000;1971.00000000000;1964.00000000000;1954.00000000000;1942.00000000000;1957.00000000000;1946.00000000000;1974.00000000000;1963.00000000000;1981.00000000000;1994.00000000000;2013.00000000000;2000.00000000000;2008.00000000000;2018.00000000000;2011.00000000000;2018.00000000000;2027.00000000000;2021.00000000000;2037.00000000000;2019.00000000000;2018.00000000000;2008.00000000000;2013.00000000000;1975.00000000000;1989.00000000000;1979.00000000000;2009.00000000000;2000.00000000000;2014.00000000000;1978.00000000000;2003.00000000000;2007.00000000000;1997.00000000000;2007.00000000000;2005.00000000000;1989.00000000000;2007.00000000000;2025.00000000000;2029.00000000000
