COMMAND 2 SAMPLE 1
Accel X : 2822.00000000000;2832.00000000000;2829.00000000000;2832.00000000000;2840.00000000000;2834.00000000000;2826.00000000000;2816.00000000000;2830.00000000000;2834.00000000000;2828.00000000000;2804.00000000000;2824.00000000000;2816.00000000000;2820.00000000000;2818.00000000000;2841.00000000000;2822.00000000000;2831.00000000000;2827.00000000000;2823.00000000000;2830.00000000000;2829.00000000000;2835.00000000000;2820.00000000000;2834.00000000000;2803.00000000000;2825.00000000000;2833.00000000000;2835.00000000000;2823.00000000000;2825.00000000000;2854.00000000000;2833.00000000000;2813.00000000000;2818.00000000000;2806.00000000000;2825.00000000000;2821.00000000000;2810.00000000000;2832.00000000000;2842.00000000000;2827.00000000000;2827.00000000000;2801.00000000000;2819.00000000000;2814.00000000000;2844.00000000000;2810.00000000000;2829.00000000000;2807.00000000000;2841.00000000000;2829.00000000000;2848.00000000000;2847.00000000000;2849.00000000000;2839.00000000000;3032.00000000000;3007.00000000000;3055.00000000000;3026.00000000000;2936.00000000000;2901.00000000000;2871.00000000000;2957.00000000000;2972.00000000000;2900.00000000000;2779.00000000000;2679.00000000000;2554.00000000000;2526.00000000000;2372.00000000000;2270.00000000000;2170.00000000000;2005.00000000000;1945.00000000000;1887.00000000000;1906.00000000000;1955.00000000000;2041.00000000000;2127.00000000000;2157.00000000000;2225.00000000000;2282.00000000000;2299.00000000000;2338.00000000000;2363.00000000000;2376.00000000000;2354.00000000000;2352.00000000000;2296.00000000000;2253.00000000000;2202.00000000000;2242.00000000000;2241.00000000000;2230.00000000000;2280.00000000000;2336.00000000000;2419.00000000000;2417.00000000000;2378.00000000000;2472.00000000000;2512.00000000000;2435.00000000000;2581.00000000000;2803.00000000000;2875.00000000000;2883.00000000000;3007.00000000000;2951.00000000000;2804.00000000000;2749.00000000000;2774.00000000000;2755.00000000000;2808.00000000000;2852.00000000000;2870.00000000000;2840.00000000000;2826.00000000000;2814.00000000000;2814.00000000000;2827.00000000000;2793.00000000000;2809.00000000000;2814.00000000000;2801.00000000000;2762.00000000000;2825.00000000000;2773.00000000000;2778.00000000000;2806.00000000000;2803.00000000000;2820.00000000000;2824.00000000000;2831.00000000000;2825.00000000000;2812.00000000000;2795.00000000000;2820.00000000000;2842.00000000000;2838.00000000000;2831.00000000000;2841.00000000000;2838.00000000000;2833.00000000000;2831.00000000000;2824.00000000000;2834.00000000000;2830.00000000000;2823.00000000000
Accel Y : 1874.00000000000;1867.00000000000;1870.00000000000;1865.00000000000;1848.00000000000;1893.00000000000;1883.00000000000;1864.00000000000;1887.00000000000;1856.00000000000;1857.00000000000;1874.00000000000;1884.00000000000;1877.00000000000;1857.00000000000;1863.00000000000;1859.00000000000;1863.00000000000;1874.00000000000;1866.00000000000;1871.00000000000;1875.00000000000;1863.00000000000;1880.00000000000;1868.00000000000;1872.00000000000;1879.00000000000;1891.00000000000;1868.00000000000;1876.00000000000;1864.00000000000;1848.00000000000;1883.00000000000;1874.00000000000;1868.00000000000;1861.00000000000;1876.00000000000;1861.00000000000;1871.00000000000;1865.00000000000;1862.00000000000;1857.00000000000;1885.00000000000;1872.00000000000;1866.00000000000;1844.00000000000;1883.00000000000;1876.00000000000;1856.00000000000;1840.00000000000;1853.00000000000;1855.00000000000;1837.00000000000;1780.00000000000;1808.00000000000;1806.00000000000;1863.00000000000;1961.00000000000;2036.00000000000;2071.00000000000;2101.00000000000;2075.00000000000;2125.00000000000;2138.00000000000;2133.00000000000;2136.00000000000;2111.00000000000;2115.00000000000;2077.00000000000;2005.00000000000;1949.00000000000;1879.00000000000;1807.00000000000;1757.00000000000;1685.00000000000;1641.00000000000;1601.00000000000;1547.00000000000;1517.00000000000;1479.00000000000;1458.00000000000;1413.00000000000;1403.00000000000;1359.00000000000;1354.00000000000;1345.00000000000;1350.00000000000;1378.00000000000;1378.00000000000;1373.00000000000;1385.00000000000;1395.00000000000;1391.00000000000;1412.00000000000;1409.00000000000;1436.00000000000;1506.00000000000;1552.00000000000;1588.00000000000;1615.00000000000;1694.00000000000;1812.00000000000;1845.00000000000;1831.00000000000;1859.00000000000;2035.00000000000;2095.00000000000;2097.00000000000;2137.00000000000;2111.00000000000;2077.00000000000;2056.00000000000;2003.00000000000;1971.00000000000;1989.00000000000;1997.00000000000;1988.00000000000;1931.00000000000;1930.00000000000;1939.00000000000;1930.00000000000;1929.00000000000;1890.00000000000;1915.00000000000;1902.00000000000;1894.00000000000;1911.00000000000;1882.00000000000;1903.00000000000;1891.00000000000;1885.00000000000;1864.00000000000;1867.00000000000;1873.00000000000;1877.00000000000;1872.00000000000;1881.00000000000;1853.00000000000;1846.00000000000;1851.00000000000;1852.00000000000;1849.00000000000;1848.00000000000;1873.00000000000;1848.00000000000;1855.00000000000;1853.00000000000;1855.00000000000;1827.00000000000;1821.00000000000
Accel Z : 1948.00000000000;1944.00000000000;1961.00000000000;1946.00000000000;1954.00000000000;1961.00000000000;1947.00000000000;1961.00000000000;1961.00000000000;1980.00000000000;1959.00000000000;1947.00000000000;1959.00000000000;1975.00000000000;1964.00000000000;1950.00000000000;1951.00000000000;1957.00000000000;1939.00000000000;1945.00000000000;1947.00000000000;1956.00000000000;1934.00000000000;1958.00000000000;1967.00000000000;1957.00000000000;1949.00000000000;1955.00000000000;1973.00000000000;1971.00000000000;1963.00000000000;1957.00000000000;1954.00000000000;1957.00000000000;1974.00000000000;1964.00000000000;1978.00000000000;1951.00000000000;1966.00000000000;1975.00000000000;1967.00000000000;1963.00000000000;1974.00000000000;1954.00000000000;1968.00000000000;1970.00000000000;1975.00000000000;1963.00000000000;1970.00000000000;1958.00000000000;1975.00000000000;1980.00000000000;1999.00000000000;2037.00000000000;2098.00000000000;2144.00000000000;2235.00000000000;2354.00000000000;2470.00000000000;2522.00000000000;2527.00000000000;2482.00000000000;2405.00000000000;2257.00000000000;2154.00000000000;2004.00000000000;1853.00000000000;1703.00000000000;1565.00000000000;1388.00000000000;1254.00000000000;1118.00000000000;981.000000000000;908.000000000000;847.000000000000;789.000000000000;728.000000000000;694.000000000000;686.000000000000;695.000000000000;766.000000000000;838.000000000000;873.000000000000;937.000000000000;953.000000000000;956.000000000000;956.000000000000;960.000000000000;932.000000000000;888.000000000000;861.000000000000;784.000000000000;710.000000000000;674.000000000000;723.000000000000;716.000000000000;810.000000000000;838.000000000000;920.000000000000;1008.00000000000;1169.00000000000;1375.00000000000;1553.00000000000;1610.00000000000;1673.00000000000;1805.00000000000;1842.00000000000;1997.00000000000;2173.00000000000;2288.00000000000;2343.00000000000;2371.00000000000;2384.00000000000;2359.00000000000;2371.00000000000;2350.00000000000;2333.00000000000;2275.00000000000;2261.00000000000;2228.00000000000;2210.00000000000;2155.00000000000;2163.00000000000;2107.00000000000;2091.00000000000;2033.00000000000;2016.00000000000;2026.00000000000;1988.00000000000;1983.00000000000;1980.00000000000;1981.00000000000;1980.00000000000;1960.00000000000;1982.00000000000;1980.00000000000;1974.00000000000;1972.00000000000;1977.00000000000;1966.00000000000;1985.00000000000;1986.00000000000;1988.00000000000;1966.00000000000;1970.00000000000;1965.00000000000;1967.00000000000;1939.00000000000;1969.00000000000;1942.00000000000
Gyro X : 2822.00000000000;2832.00000000000;2829.00000000000;2832.00000000000;2840.00000000000;2834.00000000000;2826.00000000000;2816.00000000000;2830.00000000000;2834.00000000000;2828.00000000000;2804.00000000000;2824.00000000000;2816.00000000000;2820.00000000000;2818.00000000000;2841.00000000000;2822.00000000000;2831.00000000000;2827.00000000000;2823.00000000000;2830.00000000000;2829.00000000000;2835.00000000000;2820.00000000000;2834.00000000000;2803.00000000000;2825.00000000000;2833.00000000000;2835.00000000000;2823.00000000000;2825.00000000000;2854.00000000000;2833.00000000000;2813.00000000000;2818.00000000000;2806.00000000000;2825.00000000000;2821.00000000000;2810.00000000000;2832.00000000000;2842.00000000000;2827.00000000000;2827.00000000000;2801.00000000000;2819.00000000000;2814.00000000000;2844.00000000000;2810.00000000000;2829.00000000000;2807.00000000000;2841.00000000000;2829.00000000000;2848.00000000000;2847.00000000000;2849.00000000000;2839.00000000000;3032.00000000000;3007.00000000000;3055.00000000000;3026.00000000000;2936.00000000000;2901.00000000000;2871.00000000000;2957.00000000000;2972.00000000000;2900.00000000000;2779.00000000000;2679.00000000000;2554.00000000000;2526.00000000000;2372.00000000000;2270.00000000000;2170.00000000000;2005.00000000000;1945.00000000000;1887.00000000000;1906.00000000000;1955.00000000000;2041.00000000000;2127.00000000000;2157.00000000000;2225.00000000000;2282.00000000000;2299.00000000000;2338.00000000000;2363.00000000000;2376.00000000000;2354.00000000000;2352.00000000000;2296.00000000000;2253.00000000000;2202.00000000000;2242.00000000000;2241.00000000000;2230.00000000000;2280.00000000000;2336.00000000000;2419.00000000000;2417.00000000000;2378.00000000000;2472.00000000000;2512.00000000000;2435.00000000000;2581.00000000000;2803.00000000000;2875.00000000000;2883.00000000000;3007.00000000000;2951.00000000000;2804.00000000000;2749.00000000000;2774.00000000000;2755.00000000000;2808.00000000000;2852.00000000000;2870.00000000000;2840.00000000000;2826.00000000000;2814.00000000000;2814.00000000000;2827.00000000000;2793.00000000000;2809.00000000000;2814.00000000000;2801.00000000000;2762.00000000000;2825.00000000000;2773.00000000000;2778.00000000000;2806.00000000000;2803.00000000000;2820.00000000000;2824.00000000000;2831.00000000000;2825.00000000000;2812.00000000000;2795.00000000000;2820.00000000000;2842.00000000000;2838.00000000000;2831.00000000000;2841.00000000000;2838.00000000000;2833.00000000000;2831.00000000000;2824.00000000000;2834.00000000000;2830.00000000000;2823.00000000000
Gyro Y : 1874.00000000000;1867.00000000000;1870.00000000000;1865.00000000000;1848.00000000000;1893.00000000000;1883.00000000000;1864.00000000000;1887.00000000000;1856.00000000000;1857.00000000000;1874.00000000000;1884.00000000000;1877.00000000000;1857.00000000000;1863.00000000000;1859.00000000000;1863.00000000000;1874.00000000000;1866.00000000000;1871.00000000000;1875.00000000000;1863.00000000000;1880.00000000000;1868.00000000000;1872.00000000000;1879.00000000000;1891.00000000000;1868.00000000000;1876.00000000000;1864.00000000000;1848.00000000000;1883.00000000000;1874.00000000000;1868.00000000000;1861.00000000000;1876.00000000000;1861.00000000000;1871.00000000000;1865.00000000000;1862.00000000000;1857.00000000000;1885.00000000000;1872.00000000000;1866.00000000000;1844.00000000000;1883.00000000000;1876.00000000000;1856.00000000000;1840.00000000000;1853.00000000000;1855.00000000000;1837.00000000000;1780.00000000000;1808.00000000000;1806.00000000000;1863.00000000000;1961.00000000000;2036.00000000000;2071.00000000000;2101.00000000000;2075.00000000000;2125.00000000000;2138.00000000000;2133.00000000000;2136.00000000000;2111.00000000000;2115.00000000000;2077.00000000000;2005.00000000000;1949.00000000000;1879.00000000000;1807.00000000000;1757.00000000000;1685.00000000000;1641.00000000000;1601.00000000000;1547.00000000000;1517.00000000000;1479.00000000000;1458.00000000000;1413.00000000000;1403.00000000000;1359.00000000000;1354.00000000000;1345.00000000000;1350.00000000000;1378.00000000000;1378.00000000000;1373.00000000000;1385.00000000000;1395.00000000000;1391.00000000000;1412.00000000000;1409.00000000000;1436.00000000000;1506.00000000000;1552.00000000000;1588.00000000000;1615.00000000000;1694.00000000000;1812.00000000000;1845.00000000000;1831.00000000000;1859.00000000000;2035.00000000000;2095.00000000000;2097.00000000000;2137.00000000000;2111.00000000000;2077.00000000000;2056.00000000000;2003.00000000000;1971.00000000000;1989.00000000000;1997.00000000000;1988.00000000000;1931.00000000000;1930.00000000000;1939.00000000000;1930.00000000000;1929.00000000000;1890.00000000000;1915.00000000000;1902.00000000000;1894.00000000000;1911.00000000000;1882.00000000000;1903.00000000000;1891.00000000000;1885.00000000000;1864.00000000000;1867.00000000000;1873.00000000000;1877.00000000000;1872.00000000000;1881.00000000000;1853.00000000000;1846.00000000000;1851.00000000000;1852.00000000000;1849.00000000000;1848.00000000000;1873.00000000000;1848.00000000000;1855.00000000000;1853.00000000000;1855.00000000000;1827.00000000000;1821.00000000000
Gyro Z : 1948.00000000000;1944.00000000000;1961.00000000000;1946.00000000000;1954.00000000000;1961.00000000000;1947.00000000000;1961.00000000000;1961.00000000000;1980.00000000000;1959.00000000000;1947.00000000000;1959.00000000000;1975.00000000000;1964.00000000000;1950.00000000000;1951.00000000000;1957.00000000000;1939.00000000000;1945.00000000000;1947.00000000000;1956.00000000000;1934.00000000000;1958.00000000000;1967.00000000000;1957.00000000000;1949.00000000000;1955.00000000000;1973.00000000000;1971.00000000000;1963.00000000000;1957.00000000000;1954.00000000000;1957.00000000000;1974.00000000000;1964.00000000000;1978.00000000000;1951.00000000000;1966.00000000000;1975.00000000000;1967.00000000000;1963.00000000000;1974.00000000000;1954.00000000000;1968.00000000000;1970.00000000000;1975.00000000000;1963.00000000000;1970.00000000000;1958.00000000000;1975.00000000000;1980.00000000000;1999.00000000000;2037.00000000000;2098.00000000000;2144.00000000000;2235.00000000000;2354.00000000000;2470.00000000000;2522.00000000000;2527.00000000000;2482.00000000000;2405.00000000000;2257.00000000000;2154.00000000000;2004.00000000000;1853.00000000000;1703.00000000000;1565.00000000000;1388.00000000000;1254.00000000000;1118.00000000000;981.000000000000;908.000000000000;847.000000000000;789.000000000000;728.000000000000;694.000000000000;686.000000000000;695.000000000000;766.000000000000;838.000000000000;873.000000000000;937.000000000000;953.000000000000;956.000000000000;956.000000000000;960.000000000000;932.000000000000;888.000000000000;861.000000000000;784.000000000000;710.000000000000;674.000000000000;723.000000000000;716.000000000000;810.000000000000;838.000000000000;920.000000000000;1008.00000000000;1169.00000000000;1375.00000000000;1553.00000000000;1610.00000000000;1673.00000000000;1805.00000000000;1842.00000000000;1997.00000000000;2173.00000000000;2288.00000000000;2343.00000000000;2371.00000000000;2384.00000000000;2359.00000000000;2371.00000000000;2350.00000000000;2333.00000000000;2275.00000000000;2261.00000000000;2228.00000000000;2210.00000000000;2155.00000000000;2163.00000000000;2107.00000000000;2091.00000000000;2033.00000000000;2016.00000000000;2026.00000000000;1988.00000000000;1983.00000000000;1980.00000000000;1981.00000000000;1980.00000000000;1960.00000000000;1982.00000000000;1980.00000000000;1974.00000000000;1972.00000000000;1977.00000000000;1966.00000000000;1985.00000000000;1986.00000000000;1988.00000000000;1966.00000000000;1970.00000000000;1965.00000000000;1967.00000000000;1939.00000000000;1969.00000000000;1942.00000000000
