COMMAND 5 SAMPLE 1
Accel X : 2805.00000000000;2807.00000000000;2798.00000000000;2823.00000000000;2826.00000000000;2812.00000000000;2788.00000000000;2791.00000000000;2785.00000000000;2826.00000000000;2812.00000000000;2823.00000000000;2819.00000000000;2803.00000000000;2807.00000000000;2827.00000000000;2825.00000000000;2793.00000000000;2812.00000000000;2820.00000000000;2805.00000000000;2814.00000000000;2837.00000000000;2796.00000000000;2809.00000000000;2832.00000000000;2812.00000000000;2798.00000000000;2787.00000000000;2804.00000000000;2798.00000000000;2808.00000000000;2787.00000000000;2793.00000000000;2808.00000000000;2806.00000000000;2818.00000000000;2831.00000000000;2800.00000000000;2790.00000000000;2780.00000000000;2817.00000000000;2799.00000000000;2782.00000000000;2817.00000000000;2815.00000000000;2794.00000000000;2797.00000000000;2797.00000000000;2803.00000000000;2807.00000000000;2801.00000000000;2786.00000000000;2761.00000000000;2739.00000000000;2734.00000000000;2724.00000000000;2789.00000000000;2896.00000000000;2781.00000000000;2632.00000000000;2542.00000000000;2452.00000000000;2416.00000000000;2257.00000000000;2127.00000000000;2139.00000000000;2177.00000000000;2294.00000000000;2311.00000000000;2359.00000000000;2498.00000000000;2495.00000000000;2403.00000000000;2360.00000000000;2333.00000000000;2319.00000000000;2310.00000000000;2364.00000000000;2369.00000000000;2305.00000000000;2271.00000000000;2263.00000000000;2259.00000000000;2202.00000000000;2204.00000000000;2170.00000000000;2151.00000000000;2141.00000000000;2175.00000000000;2161.00000000000;2141.00000000000;2159.00000000000;2122.00000000000;2175.00000000000;2203.00000000000;2180.00000000000;2176.00000000000;2194.00000000000;2205.00000000000;2251.00000000000;2306.00000000000;2377.00000000000;2403.00000000000;2462.00000000000;2425.00000000000;2444.00000000000;2517.00000000000;2536.00000000000;2609.00000000000;2663.00000000000;2762.00000000000;2789.00000000000;2815.00000000000;2813.00000000000;2670.00000000000;2667.00000000000;2645.00000000000;2575.00000000000;2576.00000000000;2606.00000000000;2633.00000000000;2670.00000000000;2696.00000000000;2729.00000000000;2728.00000000000;2755.00000000000;2748.00000000000;2736.00000000000;2756.00000000000;2760.00000000000;2793.00000000000;2810.00000000000;2833.00000000000;2813.00000000000;2839.00000000000;2824.00000000000;2828.00000000000;2823.00000000000;2836.00000000000;2834.00000000000;2814.00000000000;2836.00000000000;2814.00000000000;2818.00000000000;2814.00000000000;2808.00000000000;2827.00000000000;2815.00000000000;2814.00000000000
Accel Y : 1732.00000000000;1726.00000000000;1721.00000000000;1723.00000000000;1735.00000000000;1726.00000000000;1729.00000000000;1729.00000000000;1734.00000000000;1731.00000000000;1737.00000000000;1728.00000000000;1743.00000000000;1730.00000000000;1730.00000000000;1729.00000000000;1736.00000000000;1743.00000000000;1739.00000000000;1732.00000000000;1729.00000000000;1741.00000000000;1737.00000000000;1747.00000000000;1733.00000000000;1736.00000000000;1759.00000000000;1749.00000000000;1724.00000000000;1716.00000000000;1731.00000000000;1740.00000000000;1741.00000000000;1734.00000000000;1733.00000000000;1749.00000000000;1723.00000000000;1721.00000000000;1747.00000000000;1735.00000000000;1736.00000000000;1731.00000000000;1719.00000000000;1730.00000000000;1709.00000000000;1732.00000000000;1728.00000000000;1738.00000000000;1732.00000000000;1724.00000000000;1722.00000000000;1713.00000000000;1722.00000000000;1693.00000000000;1692.00000000000;1684.00000000000;1680.00000000000;1653.00000000000;1659.00000000000;1628.00000000000;1590.00000000000;1588.00000000000;1591.00000000000;1596.00000000000;1595.00000000000;1619.00000000000;1723.00000000000;1832.00000000000;1993.00000000000;2147.00000000000;2253.00000000000;2466.00000000000;2669.00000000000;2773.00000000000;2868.00000000000;2999.00000000000;3099.00000000000;3165.00000000000;3195.00000000000;3205.00000000000;3163.00000000000;3155.00000000000;3117.00000000000;3055.00000000000;3049.00000000000;3014.00000000000;3002.00000000000;2995.00000000000;3015.00000000000;3027.00000000000;3019.00000000000;3033.00000000000;3064.00000000000;3061.00000000000;3073.00000000000;3062.00000000000;3079.00000000000;3078.00000000000;3052.00000000000;3051.00000000000;3023.00000000000;2954.00000000000;2959.00000000000;2971.00000000000;2926.00000000000;2807.00000000000;2699.00000000000;2655.00000000000;2545.00000000000;2387.00000000000;2238.00000000000;2162.00000000000;2028.00000000000;1870.00000000000;1838.00000000000;1789.00000000000;1742.00000000000;1763.00000000000;1783.00000000000;1795.00000000000;1823.00000000000;1794.00000000000;1782.00000000000;1790.00000000000;1809.00000000000;1805.00000000000;1832.00000000000;1794.00000000000;1794.00000000000;1755.00000000000;1751.00000000000;1764.00000000000;1737.00000000000;1768.00000000000;1754.00000000000;1743.00000000000;1723.00000000000;1725.00000000000;1728.00000000000;1740.00000000000;1737.00000000000;1742.00000000000;1762.00000000000;1761.00000000000;1760.00000000000;1772.00000000000;1752.00000000000;1757.00000000000;1775.00000000000;1769.00000000000
Accel Z : 1893.00000000000;1892.00000000000;1901.00000000000;1892.00000000000;1887.00000000000;1900.00000000000;1910.00000000000;1887.00000000000;1906.00000000000;1887.00000000000;1891.00000000000;1910.00000000000;1895.00000000000;1879.00000000000;1905.00000000000;1914.00000000000;1885.00000000000;1896.00000000000;1908.00000000000;1868.00000000000;1904.00000000000;1920.00000000000;1919.00000000000;1915.00000000000;1877.00000000000;1892.00000000000;1890.00000000000;1886.00000000000;1894.00000000000;1898.00000000000;1903.00000000000;1884.00000000000;1899.00000000000;1909.00000000000;1898.00000000000;1918.00000000000;1895.00000000000;1900.00000000000;1886.00000000000;1901.00000000000;1893.00000000000;1911.00000000000;1914.00000000000;1903.00000000000;1901.00000000000;1902.00000000000;1894.00000000000;1875.00000000000;1884.00000000000;1903.00000000000;1904.00000000000;1897.00000000000;1907.00000000000;1914.00000000000;1905.00000000000;1889.00000000000;1908.00000000000;1880.00000000000;1933.00000000000;1971.00000000000;1963.00000000000;1938.00000000000;1959.00000000000;1974.00000000000;1933.00000000000;1890.00000000000;1925.00000000000;1994.00000000000;2064.00000000000;2121.00000000000;2155.00000000000;2203.00000000000;2200.00000000000;2233.00000000000;2239.00000000000;2326.00000000000;2319.00000000000;2336.00000000000;2329.00000000000;2354.00000000000;2335.00000000000;2367.00000000000;2345.00000000000;2338.00000000000;2315.00000000000;2300.00000000000;2302.00000000000;2292.00000000000;2284.00000000000;2268.00000000000;2253.00000000000;2277.00000000000;2255.00000000000;2252.00000000000;2289.00000000000;2284.00000000000;2271.00000000000;2274.00000000000;2254.00000000000;2261.00000000000;2269.00000000000;2265.00000000000;2277.00000000000;2323.00000000000;2323.00000000000;2264.00000000000;2223.00000000000;2173.00000000000;2104.00000000000;1989.00000000000;1918.00000000000;1890.00000000000;1826.00000000000;1806.00000000000;1861.00000000000;1884.00000000000;1865.00000000000;1897.00000000000;1868.00000000000;1855.00000000000;1821.00000000000;1796.00000000000;1801.00000000000;1793.00000000000;1805.00000000000;1803.00000000000;1786.00000000000;1786.00000000000;1815.00000000000;1857.00000000000;1844.00000000000;1843.00000000000;1862.00000000000;1858.00000000000;1900.00000000000;1905.00000000000;1911.00000000000;1877.00000000000;1899.00000000000;1914.00000000000;1879.00000000000;1888.00000000000;1887.00000000000;1879.00000000000;1873.00000000000;1862.00000000000;1867.00000000000;1873.00000000000;1893.00000000000;1881.00000000000
Gyro X : 2805.00000000000;2807.00000000000;2798.00000000000;2823.00000000000;2826.00000000000;2812.00000000000;2788.00000000000;2791.00000000000;2785.00000000000;2826.00000000000;2812.00000000000;2823.00000000000;2819.00000000000;2803.00000000000;2807.00000000000;2827.00000000000;2825.00000000000;2793.00000000000;2812.00000000000;2820.00000000000;2805.00000000000;2814.00000000000;2837.00000000000;2796.00000000000;2809.00000000000;2832.00000000000;2812.00000000000;2798.00000000000;2787.00000000000;2804.00000000000;2798.00000000000;2808.00000000000;2787.00000000000;2793.00000000000;2808.00000000000;2806.00000000000;2818.00000000000;2831.00000000000;2800.00000000000;2790.00000000000;2780.00000000000;2817.00000000000;2799.00000000000;2782.00000000000;2817.00000000000;2815.00000000000;2794.00000000000;2797.00000000000;2797.00000000000;2803.00000000000;2807.00000000000;2801.00000000000;2786.00000000000;2761.00000000000;2739.00000000000;2734.00000000000;2724.00000000000;2789.00000000000;2896.00000000000;2781.00000000000;2632.00000000000;2542.00000000000;2452.00000000000;2416.00000000000;2257.00000000000;2127.00000000000;2139.00000000000;2177.00000000000;2294.00000000000;2311.00000000000;2359.00000000000;2498.00000000000;2495.00000000000;2403.00000000000;2360.00000000000;2333.00000000000;2319.00000000000;2310.00000000000;2364.00000000000;2369.00000000000;2305.00000000000;2271.00000000000;2263.00000000000;2259.00000000000;2202.00000000000;2204.00000000000;2170.00000000000;2151.00000000000;2141.00000000000;2175.00000000000;2161.00000000000;2141.00000000000;2159.00000000000;2122.00000000000;2175.00000000000;2203.00000000000;2180.00000000000;2176.00000000000;2194.00000000000;2205.00000000000;2251.00000000000;2306.00000000000;2377.00000000000;2403.00000000000;2462.00000000000;2425.00000000000;2444.00000000000;2517.00000000000;2536.00000000000;2609.00000000000;2663.00000000000;2762.00000000000;2789.00000000000;2815.00000000000;2813.00000000000;2670.00000000000;2667.00000000000;2645.00000000000;2575.00000000000;2576.00000000000;2606.00000000000;2633.00000000000;2670.00000000000;2696.00000000000;2729.00000000000;2728.00000000000;2755.00000000000;2748.00000000000;2736.00000000000;2756.00000000000;2760.00000000000;2793.00000000000;2810.00000000000;2833.00000000000;2813.00000000000;2839.00000000000;2824.00000000000;2828.00000000000;2823.00000000000;2836.00000000000;2834.00000000000;2814.00000000000;2836.00000000000;2814.00000000000;2818.00000000000;2814.00000000000;2808.00000000000;2827.00000000000;2815.00000000000;2814.00000000000
Gyro Y : 1732.00000000000;1726.00000000000;1721.00000000000;1723.00000000000;1735.00000000000;1726.00000000000;1729.00000000000;1729.00000000000;1734.00000000000;1731.00000000000;1737.00000000000;1728.00000000000;1743.00000000000;1730.00000000000;1730.00000000000;1729.00000000000;1736.00000000000;1743.00000000000;1739.00000000000;1732.00000000000;1729.00000000000;1741.00000000000;1737.00000000000;1747.00000000000;1733.00000000000;1736.00000000000;1759.00000000000;1749.00000000000;1724.00000000000;1716.00000000000;1731.00000000000;1740.00000000000;1741.00000000000;1734.00000000000;1733.00000000000;1749.00000000000;1723.00000000000;1721.00000000000;1747.00000000000;1735.00000000000;1736.00000000000;1731.00000000000;1719.00000000000;1730.00000000000;1709.00000000000;1732.00000000000;1728.00000000000;1738.00000000000;1732.00000000000;1724.00000000000;1722.00000000000;1713.00000000000;1722.00000000000;1693.00000000000;1692.00000000000;1684.00000000000;1680.00000000000;1653.00000000000;1659.00000000000;1628.00000000000;1590.00000000000;1588.00000000000;1591.00000000000;1596.00000000000;1595.00000000000;1619.00000000000;1723.00000000000;1832.00000000000;1993.00000000000;2147.00000000000;2253.00000000000;2466.00000000000;2669.00000000000;2773.00000000000;2868.00000000000;2999.00000000000;3099.00000000000;3165.00000000000;3195.00000000000;3205.00000000000;3163.00000000000;3155.00000000000;3117.00000000000;3055.00000000000;3049.00000000000;3014.00000000000;3002.00000000000;2995.00000000000;3015.00000000000;3027.00000000000;3019.00000000000;3033.00000000000;3064.00000000000;3061.00000000000;3073.00000000000;3062.00000000000;3079.00000000000;3078.00000000000;3052.00000000000;3051.00000000000;3023.00000000000;2954.00000000000;2959.00000000000;2971.00000000000;2926.00000000000;2807.00000000000;2699.00000000000;2655.00000000000;2545.00000000000;2387.00000000000;2238.00000000000;2162.00000000000;2028.00000000000;1870.00000000000;1838.00000000000;1789.00000000000;1742.00000000000;1763.00000000000;1783.00000000000;1795.00000000000;1823.00000000000;1794.00000000000;1782.00000000000;1790.00000000000;1809.00000000000;1805.00000000000;1832.00000000000;1794.00000000000;1794.00000000000;1755.00000000000;1751.00000000000;1764.00000000000;1737.00000000000;1768.00000000000;1754.00000000000;1743.00000000000;1723.00000000000;1725.00000000000;1728.00000000000;1740.00000000000;1737.00000000000;1742.00000000000;1762.00000000000;1761.00000000000;1760.00000000000;1772.00000000000;1752.00000000000;1757.00000000000;1775.00000000000;1769.00000000000
Gyro Z : 1893.00000000000;1892.00000000000;1901.00000000000;1892.00000000000;1887.00000000000;1900.00000000000;1910.00000000000;1887.00000000000;1906.00000000000;1887.00000000000;1891.00000000000;1910.00000000000;1895.00000000000;1879.00000000000;1905.00000000000;1914.00000000000;1885.00000000000;1896.00000000000;1908.00000000000;1868.00000000000;1904.00000000000;1920.00000000000;1919.00000000000;1915.00000000000;1877.00000000000;1892.00000000000;1890.00000000000;1886.00000000000;1894.00000000000;1898.00000000000;1903.00000000000;1884.00000000000;1899.00000000000;1909.00000000000;1898.00000000000;1918.00000000000;1895.00000000000;1900.00000000000;1886.00000000000;1901.00000000000;1893.00000000000;1911.00000000000;1914.00000000000;1903.00000000000;1901.00000000000;1902.00000000000;1894.00000000000;1875.00000000000;1884.00000000000;1903.00000000000;1904.00000000000;1897.00000000000;1907.00000000000;1914.00000000000;1905.00000000000;1889.00000000000;1908.00000000000;1880.00000000000;1933.00000000000;1971.00000000000;1963.00000000000;1938.00000000000;1959.00000000000;1974.00000000000;1933.00000000000;1890.00000000000;1925.00000000000;1994.00000000000;2064.00000000000;2121.00000000000;2155.00000000000;2203.00000000000;2200.00000000000;2233.00000000000;2239.00000000000;2326.00000000000;2319.00000000000;2336.00000000000;2329.00000000000;2354.00000000000;2335.00000000000;2367.00000000000;2345.00000000000;2338.00000000000;2315.00000000000;2300.00000000000;2302.00000000000;2292.00000000000;2284.00000000000;2268.00000000000;2253.00000000000;2277.00000000000;2255.00000000000;2252.00000000000;2289.00000000000;2284.00000000000;2271.00000000000;2274.00000000000;2254.00000000000;2261.00000000000;2269.00000000000;2265.00000000000;2277.00000000000;2323.00000000000;2323.00000000000;2264.00000000000;2223.00000000000;2173.00000000000;2104.00000000000;1989.00000000000;1918.00000000000;1890.00000000000;1826.00000000000;1806.00000000000;1861.00000000000;1884.00000000000;1865.00000000000;1897.00000000000;1868.00000000000;1855.00000000000;1821.00000000000;1796.00000000000;1801.00000000000;1793.00000000000;1805.00000000000;1803.00000000000;1786.00000000000;1786.00000000000;1815.00000000000;1857.00000000000;1844.00000000000;1843.00000000000;1862.00000000000;1858.00000000000;1900.00000000000;1905.00000000000;1911.00000000000;1877.00000000000;1899.00000000000;1914.00000000000;1879.00000000000;1888.00000000000;1887.00000000000;1879.00000000000;1873.00000000000;1862.00000000000;1867.00000000000;1873.00000000000;1893.00000000000;1881.00000000000
