COMMAND 5 SAMPLE 1
Accel X : 2793.00000000000;2789.00000000000;2791.00000000000;2798.00000000000;2803.00000000000;2825.00000000000;2795.00000000000;2798.00000000000;2837.00000000000;2790.00000000000;2811.00000000000;2789.00000000000;2788.00000000000;2791.00000000000;2803.00000000000;2803.00000000000;2792.00000000000;2781.00000000000;2797.00000000000;2798.00000000000;2793.00000000000;2815.00000000000;2793.00000000000;2820.00000000000;2813.00000000000;2793.00000000000;2789.00000000000;2801.00000000000;2802.00000000000;2817.00000000000;2803.00000000000;2803.00000000000;2792.00000000000;2780.00000000000;2803.00000000000;2791.00000000000;2807.00000000000;2810.00000000000;2804.00000000000;2798.00000000000;2796.00000000000;2809.00000000000;2808.00000000000;2813.00000000000;2823.00000000000;2795.00000000000;2796.00000000000;2772.00000000000;2776.00000000000;2733.00000000000;2773.00000000000;2868.00000000000;2945.00000000000;2787.00000000000;2683.00000000000;2637.00000000000;2488.00000000000;2348.00000000000;2233.00000000000;2123.00000000000;2041.00000000000;2111.00000000000;2111.00000000000;2204.00000000000;2259.00000000000;2322.00000000000;2394.00000000000;2439.00000000000;2453.00000000000;2414.00000000000;2355.00000000000;2257.00000000000;2220.00000000000;2187.00000000000;2195.00000000000;2213.00000000000;2183.00000000000;2082.00000000000;2038.00000000000;2050.00000000000;2063.00000000000;2071.00000000000;2036.00000000000;2004.00000000000;2004.00000000000;2027.00000000000;2071.00000000000;2096.00000000000;2091.00000000000;2097.00000000000;2161.00000000000;2161.00000000000;2143.00000000000;2160.00000000000;2231.00000000000;2266.00000000000;2372.00000000000;2416.00000000000;2458.00000000000;2498.00000000000;2499.00000000000;2419.00000000000;2386.00000000000;2390.00000000000;2395.00000000000;2378.00000000000;2435.00000000000;2467.00000000000;2475.00000000000;2462.00000000000;2567.00000000000;2700.00000000000;2670.00000000000;2557.00000000000;2529.00000000000;2551.00000000000;2665.00000000000;2736.00000000000;2774.00000000000;2851.00000000000;2866.00000000000;2845.00000000000;2807.00000000000;2804.00000000000;2808.00000000000;2783.00000000000;2816.00000000000;2833.00000000000;2822.00000000000;2837.00000000000;2815.00000000000;2791.00000000000;2836.00000000000;2828.00000000000;2843.00000000000;2828.00000000000;2826.00000000000;2813.00000000000;2813.00000000000;2824.00000000000;2831.00000000000;2821.00000000000;2799.00000000000;2806.00000000000;2787.00000000000;2803.00000000000;2800.00000000000;2799.00000000000;2763.00000000000;2797.00000000000
Accel Y : 1753.00000000000;1750.00000000000;1738.00000000000;1746.00000000000;1732.00000000000;1737.00000000000;1735.00000000000;1742.00000000000;1740.00000000000;1736.00000000000;1746.00000000000;1739.00000000000;1730.00000000000;1739.00000000000;1741.00000000000;1728.00000000000;1746.00000000000;1741.00000000000;1741.00000000000;1735.00000000000;1749.00000000000;1738.00000000000;1721.00000000000;1708.00000000000;1705.00000000000;1727.00000000000;1737.00000000000;1737.00000000000;1728.00000000000;1716.00000000000;1712.00000000000;1731.00000000000;1707.00000000000;1713.00000000000;1715.00000000000;1700.00000000000;1715.00000000000;1722.00000000000;1720.00000000000;1719.00000000000;1711.00000000000;1724.00000000000;1715.00000000000;1711.00000000000;1720.00000000000;1714.00000000000;1706.00000000000;1723.00000000000;1724.00000000000;1695.00000000000;1708.00000000000;1671.00000000000;1670.00000000000;1688.00000000000;1667.00000000000;1627.00000000000;1582.00000000000;1566.00000000000;1595.00000000000;1558.00000000000;1643.00000000000;1699.00000000000;1782.00000000000;1942.00000000000;2146.00000000000;2376.00000000000;2676.00000000000;2870.00000000000;2993.00000000000;3209.00000000000;3307.00000000000;3251.00000000000;3301.00000000000;3334.00000000000;3276.00000000000;3237.00000000000;3159.00000000000;3091.00000000000;3059.00000000000;3022.00000000000;3016.00000000000;3046.00000000000;3023.00000000000;3020.00000000000;3028.00000000000;3050.00000000000;3083.00000000000;3106.00000000000;3136.00000000000;3150.00000000000;3165.00000000000;3201.00000000000;3203.00000000000;3234.00000000000;3223.00000000000;3206.00000000000;3183.00000000000;3089.00000000000;3026.00000000000;2955.00000000000;2816.00000000000;2685.00000000000;2515.00000000000;2338.00000000000;2200.00000000000;1973.00000000000;1847.00000000000;1791.00000000000;1697.00000000000;1649.00000000000;1614.00000000000;1737.00000000000;1690.00000000000;1668.00000000000;1673.00000000000;1710.00000000000;1675.00000000000;1686.00000000000;1702.00000000000;1732.00000000000;1739.00000000000;1699.00000000000;1679.00000000000;1695.00000000000;1707.00000000000;1711.00000000000;1715.00000000000;1713.00000000000;1696.00000000000;1706.00000000000;1727.00000000000;1715.00000000000;1723.00000000000;1718.00000000000;1728.00000000000;1731.00000000000;1714.00000000000;1728.00000000000;1745.00000000000;1751.00000000000;1751.00000000000;1746.00000000000;1757.00000000000;1748.00000000000;1744.00000000000;1764.00000000000;1757.00000000000;1729.00000000000;1738.00000000000;1747.00000000000
Accel Z : 1908.00000000000;1912.00000000000;1913.00000000000;1914.00000000000;1901.00000000000;1892.00000000000;1908.00000000000;1899.00000000000;1898.00000000000;1921.00000000000;1911.00000000000;1917.00000000000;1913.00000000000;1906.00000000000;1885.00000000000;1888.00000000000;1924.00000000000;1911.00000000000;1915.00000000000;1918.00000000000;1922.00000000000;1904.00000000000;1900.00000000000;1906.00000000000;1911.00000000000;1911.00000000000;1902.00000000000;1905.00000000000;1872.00000000000;1918.00000000000;1885.00000000000;1900.00000000000;1911.00000000000;1899.00000000000;1902.00000000000;1895.00000000000;1907.00000000000;1907.00000000000;1903.00000000000;1908.00000000000;1890.00000000000;1892.00000000000;1910.00000000000;1890.00000000000;1904.00000000000;1893.00000000000;1916.00000000000;1880.00000000000;1917.00000000000;1888.00000000000;1900.00000000000;1870.00000000000;1944.00000000000;1931.00000000000;1961.00000000000;1978.00000000000;1969.00000000000;1974.00000000000;1963.00000000000;1955.00000000000;2003.00000000000;1987.00000000000;1977.00000000000;1959.00000000000;2049.00000000000;2098.00000000000;2154.00000000000;2188.00000000000;2243.00000000000;2386.00000000000;2357.00000000000;2311.00000000000;2270.00000000000;2309.00000000000;2330.00000000000;2317.00000000000;2325.00000000000;2277.00000000000;2237.00000000000;2225.00000000000;2260.00000000000;2260.00000000000;2262.00000000000;2210.00000000000;2210.00000000000;2216.00000000000;2219.00000000000;2239.00000000000;2280.00000000000;2262.00000000000;2277.00000000000;2308.00000000000;2288.00000000000;2281.00000000000;2291.00000000000;2318.00000000000;2309.00000000000;2331.00000000000;2340.00000000000;2336.00000000000;2309.00000000000;2237.00000000000;2128.00000000000;2031.00000000000;1941.00000000000;1820.00000000000;1799.00000000000;1792.00000000000;1783.00000000000;1763.00000000000;1778.00000000000;1841.00000000000;1830.00000000000;1790.00000000000;1822.00000000000;1794.00000000000;1813.00000000000;1782.00000000000;1786.00000000000;1774.00000000000;1796.00000000000;1800.00000000000;1817.00000000000;1836.00000000000;1841.00000000000;1828.00000000000;1851.00000000000;1882.00000000000;1850.00000000000;1861.00000000000;1837.00000000000;1838.00000000000;1843.00000000000;1888.00000000000;1862.00000000000;1846.00000000000;1861.00000000000;1858.00000000000;1858.00000000000;1856.00000000000;1862.00000000000;1874.00000000000;1863.00000000000;1875.00000000000;1882.00000000000;1866.00000000000;1861.00000000000;1868.00000000000;1874.00000000000;1870.00000000000
Gyro X : 2793.00000000000;2789.00000000000;2791.00000000000;2798.00000000000;2803.00000000000;2825.00000000000;2795.00000000000;2798.00000000000;2837.00000000000;2790.00000000000;2811.00000000000;2789.00000000000;2788.00000000000;2791.00000000000;2803.00000000000;2803.00000000000;2792.00000000000;2781.00000000000;2797.00000000000;2798.00000000000;2793.00000000000;2815.00000000000;2793.00000000000;2820.00000000000;2813.00000000000;2793.00000000000;2789.00000000000;2801.00000000000;2802.00000000000;2817.00000000000;2803.00000000000;2803.00000000000;2792.00000000000;2780.00000000000;2803.00000000000;2791.00000000000;2807.00000000000;2810.00000000000;2804.00000000000;2798.00000000000;2796.00000000000;2809.00000000000;2808.00000000000;2813.00000000000;2823.00000000000;2795.00000000000;2796.00000000000;2772.00000000000;2776.00000000000;2733.00000000000;2773.00000000000;2868.00000000000;2945.00000000000;2787.00000000000;2683.00000000000;2637.00000000000;2488.00000000000;2348.00000000000;2233.00000000000;2123.00000000000;2041.00000000000;2111.00000000000;2111.00000000000;2204.00000000000;2259.00000000000;2322.00000000000;2394.00000000000;2439.00000000000;2453.00000000000;2414.00000000000;2355.00000000000;2257.00000000000;2220.00000000000;2187.00000000000;2195.00000000000;2213.00000000000;2183.00000000000;2082.00000000000;2038.00000000000;2050.00000000000;2063.00000000000;2071.00000000000;2036.00000000000;2004.00000000000;2004.00000000000;2027.00000000000;2071.00000000000;2096.00000000000;2091.00000000000;2097.00000000000;2161.00000000000;2161.00000000000;2143.00000000000;2160.00000000000;2231.00000000000;2266.00000000000;2372.00000000000;2416.00000000000;2458.00000000000;2498.00000000000;2499.00000000000;2419.00000000000;2386.00000000000;2390.00000000000;2395.00000000000;2378.00000000000;2435.00000000000;2467.00000000000;2475.00000000000;2462.00000000000;2567.00000000000;2700.00000000000;2670.00000000000;2557.00000000000;2529.00000000000;2551.00000000000;2665.00000000000;2736.00000000000;2774.00000000000;2851.00000000000;2866.00000000000;2845.00000000000;2807.00000000000;2804.00000000000;2808.00000000000;2783.00000000000;2816.00000000000;2833.00000000000;2822.00000000000;2837.00000000000;2815.00000000000;2791.00000000000;2836.00000000000;2828.00000000000;2843.00000000000;2828.00000000000;2826.00000000000;2813.00000000000;2813.00000000000;2824.00000000000;2831.00000000000;2821.00000000000;2799.00000000000;2806.00000000000;2787.00000000000;2803.00000000000;2800.00000000000;2799.00000000000;2763.00000000000;2797.00000000000
Gyro Y : 1753.00000000000;1750.00000000000;1738.00000000000;1746.00000000000;1732.00000000000;1737.00000000000;1735.00000000000;1742.00000000000;1740.00000000000;1736.00000000000;1746.00000000000;1739.00000000000;1730.00000000000;1739.00000000000;1741.00000000000;1728.00000000000;1746.00000000000;1741.00000000000;1741.00000000000;1735.00000000000;1749.00000000000;1738.00000000000;1721.00000000000;1708.00000000000;1705.00000000000;1727.00000000000;1737.00000000000;1737.00000000000;1728.00000000000;1716.00000000000;1712.00000000000;1731.00000000000;1707.00000000000;1713.00000000000;1715.00000000000;1700.00000000000;1715.00000000000;1722.00000000000;1720.00000000000;1719.00000000000;1711.00000000000;1724.00000000000;1715.00000000000;1711.00000000000;1720.00000000000;1714.00000000000;1706.00000000000;1723.00000000000;1724.00000000000;1695.00000000000;1708.00000000000;1671.00000000000;1670.00000000000;1688.00000000000;1667.00000000000;1627.00000000000;1582.00000000000;1566.00000000000;1595.00000000000;1558.00000000000;1643.00000000000;1699.00000000000;1782.00000000000;1942.00000000000;2146.00000000000;2376.00000000000;2676.00000000000;2870.00000000000;2993.00000000000;3209.00000000000;3307.00000000000;3251.00000000000;3301.00000000000;3334.00000000000;3276.00000000000;3237.00000000000;3159.00000000000;3091.00000000000;3059.00000000000;3022.00000000000;3016.00000000000;3046.00000000000;3023.00000000000;3020.00000000000;3028.00000000000;3050.00000000000;3083.00000000000;3106.00000000000;3136.00000000000;3150.00000000000;3165.00000000000;3201.00000000000;3203.00000000000;3234.00000000000;3223.00000000000;3206.00000000000;3183.00000000000;3089.00000000000;3026.00000000000;2955.00000000000;2816.00000000000;2685.00000000000;2515.00000000000;2338.00000000000;2200.00000000000;1973.00000000000;1847.00000000000;1791.00000000000;1697.00000000000;1649.00000000000;1614.00000000000;1737.00000000000;1690.00000000000;1668.00000000000;1673.00000000000;1710.00000000000;1675.00000000000;1686.00000000000;1702.00000000000;1732.00000000000;1739.00000000000;1699.00000000000;1679.00000000000;1695.00000000000;1707.00000000000;1711.00000000000;1715.00000000000;1713.00000000000;1696.00000000000;1706.00000000000;1727.00000000000;1715.00000000000;1723.00000000000;1718.00000000000;1728.00000000000;1731.00000000000;1714.00000000000;1728.00000000000;1745.00000000000;1751.00000000000;1751.00000000000;1746.00000000000;1757.00000000000;1748.00000000000;1744.00000000000;1764.00000000000;1757.00000000000;1729.00000000000;1738.00000000000;1747.00000000000
Gyro Z : 1908.00000000000;1912.00000000000;1913.00000000000;1914.00000000000;1901.00000000000;1892.00000000000;1908.00000000000;1899.00000000000;1898.00000000000;1921.00000000000;1911.00000000000;1917.00000000000;1913.00000000000;1906.00000000000;1885.00000000000;1888.00000000000;1924.00000000000;1911.00000000000;1915.00000000000;1918.00000000000;1922.00000000000;1904.00000000000;1900.00000000000;1906.00000000000;1911.00000000000;1911.00000000000;1902.00000000000;1905.00000000000;1872.00000000000;1918.00000000000;1885.00000000000;1900.00000000000;1911.00000000000;1899.00000000000;1902.00000000000;1895.00000000000;1907.00000000000;1907.00000000000;1903.00000000000;1908.00000000000;1890.00000000000;1892.00000000000;1910.00000000000;1890.00000000000;1904.00000000000;1893.00000000000;1916.00000000000;1880.00000000000;1917.00000000000;1888.00000000000;1900.00000000000;1870.00000000000;1944.00000000000;1931.00000000000;1961.00000000000;1978.00000000000;1969.00000000000;1974.00000000000;1963.00000000000;1955.00000000000;2003.00000000000;1987.00000000000;1977.00000000000;1959.00000000000;2049.00000000000;2098.00000000000;2154.00000000000;2188.00000000000;2243.00000000000;2386.00000000000;2357.00000000000;2311.00000000000;2270.00000000000;2309.00000000000;2330.00000000000;2317.00000000000;2325.00000000000;2277.00000000000;2237.00000000000;2225.00000000000;2260.00000000000;2260.00000000000;2262.00000000000;2210.00000000000;2210.00000000000;2216.00000000000;2219.00000000000;2239.00000000000;2280.00000000000;2262.00000000000;2277.00000000000;2308.00000000000;2288.00000000000;2281.00000000000;2291.00000000000;2318.00000000000;2309.00000000000;2331.00000000000;2340.00000000000;2336.00000000000;2309.00000000000;2237.00000000000;2128.00000000000;2031.00000000000;1941.00000000000;1820.00000000000;1799.00000000000;1792.00000000000;1783.00000000000;1763.00000000000;1778.00000000000;1841.00000000000;1830.00000000000;1790.00000000000;1822.00000000000;1794.00000000000;1813.00000000000;1782.00000000000;1786.00000000000;1774.00000000000;1796.00000000000;1800.00000000000;1817.00000000000;1836.00000000000;1841.00000000000;1828.00000000000;1851.00000000000;1882.00000000000;1850.00000000000;1861.00000000000;1837.00000000000;1838.00000000000;1843.00000000000;1888.00000000000;1862.00000000000;1846.00000000000;1861.00000000000;1858.00000000000;1858.00000000000;1856.00000000000;1862.00000000000;1874.00000000000;1863.00000000000;1875.00000000000;1882.00000000000;1866.00000000000;1861.00000000000;1868.00000000000;1874.00000000000;1870.00000000000
