COMMAND 3 SAMPLE 1
Accel X : 2839.00000000000;2809.00000000000;2829.00000000000;2840.00000000000;2824.00000000000;2841.00000000000;2826.00000000000;2824.00000000000;2829.00000000000;2830.00000000000;2832.00000000000;2824.00000000000;2823.00000000000;2827.00000000000;2823.00000000000;2841.00000000000;2815.00000000000;2825.00000000000;2832.00000000000;2819.00000000000;2810.00000000000;2827.00000000000;2812.00000000000;2841.00000000000;2823.00000000000;2827.00000000000;2831.00000000000;2830.00000000000;2834.00000000000;2836.00000000000;2825.00000000000;2842.00000000000;2833.00000000000;2840.00000000000;2816.00000000000;2815.00000000000;2836.00000000000;2819.00000000000;2796.00000000000;2847.00000000000;2833.00000000000;2837.00000000000;2797.00000000000;2825.00000000000;2834.00000000000;2863.00000000000;2824.00000000000;2823.00000000000;2850.00000000000;2827.00000000000;2807.00000000000;2824.00000000000;2827.00000000000;2838.00000000000;2849.00000000000;2865.00000000000;2896.00000000000;2943.00000000000;3038.00000000000;3139.00000000000;3257.00000000000;3183.00000000000;3111.00000000000;3138.00000000000;3173.00000000000;3069.00000000000;2892.00000000000;2720.00000000000;2591.00000000000;2469.00000000000;2249.00000000000;2042.00000000000;1897.00000000000;1779.00000000000;1604.00000000000;1586.00000000000;1545.00000000000;1504.00000000000;1523.00000000000;1555.00000000000;1665.00000000000;1734.00000000000;1759.00000000000;1733.00000000000;1766.00000000000;1754.00000000000;1778.00000000000;1699.00000000000;1663.00000000000;1643.00000000000;1603.00000000000;1611.00000000000;1667.00000000000;1770.00000000000;1858.00000000000;1931.00000000000;2006.00000000000;2079.00000000000;2193.00000000000;2387.00000000000;2611.00000000000;2749.00000000000;2822.00000000000;2883.00000000000;3043.00000000000;3158.00000000000;3299.00000000000;3205.00000000000;3001.00000000000;2945.00000000000;2964.00000000000;2914.00000000000;2917.00000000000;2947.00000000000;2955.00000000000;2892.00000000000;2867.00000000000;2857.00000000000;2849.00000000000;2848.00000000000;2838.00000000000;2843.00000000000;2832.00000000000;2826.00000000000;2842.00000000000;2834.00000000000;2849.00000000000;2849.00000000000;2852.00000000000;2871.00000000000;2866.00000000000;2834.00000000000;2879.00000000000;2859.00000000000;2875.00000000000;2859.00000000000;2869.00000000000;2852.00000000000;2871.00000000000;2860.00000000000;2844.00000000000;2836.00000000000;2839.00000000000;2847.00000000000;2829.00000000000;2823.00000000000;2841.00000000000;2823.00000000000;2839.00000000000;2831.00000000000
Accel Y : 1756.00000000000;1773.00000000000;1773.00000000000;1751.00000000000;1767.00000000000;1773.00000000000;1768.00000000000;1747.00000000000;1775.00000000000;1775.00000000000;1780.00000000000;1767.00000000000;1755.00000000000;1747.00000000000;1749.00000000000;1741.00000000000;1782.00000000000;1783.00000000000;1764.00000000000;1775.00000000000;1764.00000000000;1757.00000000000;1748.00000000000;1745.00000000000;1763.00000000000;1746.00000000000;1747.00000000000;1763.00000000000;1747.00000000000;1759.00000000000;1766.00000000000;1766.00000000000;1761.00000000000;1780.00000000000;1770.00000000000;1770.00000000000;1773.00000000000;1767.00000000000;1748.00000000000;1785.00000000000;1729.00000000000;1752.00000000000;1750.00000000000;1777.00000000000;1764.00000000000;1762.00000000000;1759.00000000000;1761.00000000000;1759.00000000000;1769.00000000000;1779.00000000000;1760.00000000000;1781.00000000000;1754.00000000000;1737.00000000000;1748.00000000000;1705.00000000000;1702.00000000000;1649.00000000000;1655.00000000000;1586.00000000000;1564.00000000000;1611.00000000000;1665.00000000000;1674.00000000000;1726.00000000000;1813.00000000000;1927.00000000000;2033.00000000000;2113.00000000000;2195.00000000000;2224.00000000000;2191.00000000000;2284.00000000000;2297.00000000000;2219.00000000000;2226.00000000000;2193.00000000000;2171.00000000000;2189.00000000000;2181.00000000000;2159.00000000000;2159.00000000000;2143.00000000000;2143.00000000000;2115.00000000000;2182.00000000000;2159.00000000000;2212.00000000000;2229.00000000000;2211.00000000000;2221.00000000000;2237.00000000000;2262.00000000000;2304.00000000000;2321.00000000000;2319.00000000000;2231.00000000000;2170.00000000000;2168.00000000000;2160.00000000000;2078.00000000000;1854.00000000000;1710.00000000000;1659.00000000000;1645.00000000000;1663.00000000000;1651.00000000000;1658.00000000000;1624.00000000000;1622.00000000000;1597.00000000000;1566.00000000000;1603.00000000000;1631.00000000000;1666.00000000000;1725.00000000000;1741.00000000000;1737.00000000000;1775.00000000000;1776.00000000000;1786.00000000000;1798.00000000000;1783.00000000000;1802.00000000000;1791.00000000000;1772.00000000000;1748.00000000000;1764.00000000000;1785.00000000000;1779.00000000000;1775.00000000000;1763.00000000000;1768.00000000000;1753.00000000000;1745.00000000000;1763.00000000000;1770.00000000000;1757.00000000000;1767.00000000000;1778.00000000000;1752.00000000000;1783.00000000000;1791.00000000000;1776.00000000000;1776.00000000000;1760.00000000000;1767.00000000000;1763.00000000000;1756.00000000000
Accel Z : 1805.00000000000;1796.00000000000;1802.00000000000;1817.00000000000;1803.00000000000;1821.00000000000;1806.00000000000;1799.00000000000;1793.00000000000;1804.00000000000;1803.00000000000;1796.00000000000;1819.00000000000;1798.00000000000;1794.00000000000;1791.00000000000;1793.00000000000;1813.00000000000;1802.00000000000;1799.00000000000;1794.00000000000;1795.00000000000;1795.00000000000;1815.00000000000;1804.00000000000;1819.00000000000;1815.00000000000;1791.00000000000;1810.00000000000;1795.00000000000;1810.00000000000;1787.00000000000;1814.00000000000;1826.00000000000;1800.00000000000;1770.00000000000;1801.00000000000;1808.00000000000;1797.00000000000;1817.00000000000;1801.00000000000;1788.00000000000;1782.00000000000;1815.00000000000;1801.00000000000;1793.00000000000;1795.00000000000;1800.00000000000;1798.00000000000;1811.00000000000;1823.00000000000;1805.00000000000;1831.00000000000;1805.00000000000;1789.00000000000;1795.00000000000;1783.00000000000;1747.00000000000;1737.00000000000;1687.00000000000;1633.00000000000;1643.00000000000;1659.00000000000;1717.00000000000;1765.00000000000;1777.00000000000;1867.00000000000;1968.00000000000;2113.00000000000;2146.00000000000;2281.00000000000;2366.00000000000;2337.00000000000;2443.00000000000;2516.00000000000;2542.00000000000;2602.00000000000;2680.00000000000;2713.00000000000;2732.00000000000;2759.00000000000;2779.00000000000;2786.00000000000;2782.00000000000;2794.00000000000;2794.00000000000;2791.00000000000;2803.00000000000;2781.00000000000;2790.00000000000;2803.00000000000;2729.00000000000;2751.00000000000;2770.00000000000;2667.00000000000;2519.00000000000;2340.00000000000;2244.00000000000;2142.00000000000;2068.00000000000;1918.00000000000;1755.00000000000;1676.00000000000;1556.00000000000;1550.00000000000;1526.00000000000;1545.00000000000;1482.00000000000;1436.00000000000;1420.00000000000;1447.00000000000;1459.00000000000;1505.00000000000;1543.00000000000;1573.00000000000;1609.00000000000;1596.00000000000;1657.00000000000;1667.00000000000;1666.00000000000;1703.00000000000;1744.00000000000;1720.00000000000;1767.00000000000;1780.00000000000;1787.00000000000;1764.00000000000;1755.00000000000;1752.00000000000;1779.00000000000;1726.00000000000;1732.00000000000;1737.00000000000;1728.00000000000;1722.00000000000;1732.00000000000;1740.00000000000;1727.00000000000;1729.00000000000;1726.00000000000;1702.00000000000;1747.00000000000;1739.00000000000;1737.00000000000;1735.00000000000;1757.00000000000;1753.00000000000;1738.00000000000;1753.00000000000;1755.00000000000
Gyro X : 2839.00000000000;2809.00000000000;2829.00000000000;2840.00000000000;2824.00000000000;2841.00000000000;2826.00000000000;2824.00000000000;2829.00000000000;2830.00000000000;2832.00000000000;2824.00000000000;2823.00000000000;2827.00000000000;2823.00000000000;2841.00000000000;2815.00000000000;2825.00000000000;2832.00000000000;2819.00000000000;2810.00000000000;2827.00000000000;2812.00000000000;2841.00000000000;2823.00000000000;2827.00000000000;2831.00000000000;2830.00000000000;2834.00000000000;2836.00000000000;2825.00000000000;2842.00000000000;2833.00000000000;2840.00000000000;2816.00000000000;2815.00000000000;2836.00000000000;2819.00000000000;2796.00000000000;2847.00000000000;2833.00000000000;2837.00000000000;2797.00000000000;2825.00000000000;2834.00000000000;2863.00000000000;2824.00000000000;2823.00000000000;2850.00000000000;2827.00000000000;2807.00000000000;2824.00000000000;2827.00000000000;2838.00000000000;2849.00000000000;2865.00000000000;2896.00000000000;2943.00000000000;3038.00000000000;3139.00000000000;3257.00000000000;3183.00000000000;3111.00000000000;3138.00000000000;3173.00000000000;3069.00000000000;2892.00000000000;2720.00000000000;2591.00000000000;2469.00000000000;2249.00000000000;2042.00000000000;1897.00000000000;1779.00000000000;1604.00000000000;1586.00000000000;1545.00000000000;1504.00000000000;1523.00000000000;1555.00000000000;1665.00000000000;1734.00000000000;1759.00000000000;1733.00000000000;1766.00000000000;1754.00000000000;1778.00000000000;1699.00000000000;1663.00000000000;1643.00000000000;1603.00000000000;1611.00000000000;1667.00000000000;1770.00000000000;1858.00000000000;1931.00000000000;2006.00000000000;2079.00000000000;2193.00000000000;2387.00000000000;2611.00000000000;2749.00000000000;2822.00000000000;2883.00000000000;3043.00000000000;3158.00000000000;3299.00000000000;3205.00000000000;3001.00000000000;2945.00000000000;2964.00000000000;2914.00000000000;2917.00000000000;2947.00000000000;2955.00000000000;2892.00000000000;2867.00000000000;2857.00000000000;2849.00000000000;2848.00000000000;2838.00000000000;2843.00000000000;2832.00000000000;2826.00000000000;2842.00000000000;2834.00000000000;2849.00000000000;2849.00000000000;2852.00000000000;2871.00000000000;2866.00000000000;2834.00000000000;2879.00000000000;2859.00000000000;2875.00000000000;2859.00000000000;2869.00000000000;2852.00000000000;2871.00000000000;2860.00000000000;2844.00000000000;2836.00000000000;2839.00000000000;2847.00000000000;2829.00000000000;2823.00000000000;2841.00000000000;2823.00000000000;2839.00000000000;2831.00000000000
Gyro Y : 1756.00000000000;1773.00000000000;1773.00000000000;1751.00000000000;1767.00000000000;1773.00000000000;1768.00000000000;1747.00000000000;1775.00000000000;1775.00000000000;1780.00000000000;1767.00000000000;1755.00000000000;1747.00000000000;1749.00000000000;1741.00000000000;1782.00000000000;1783.00000000000;1764.00000000000;1775.00000000000;1764.00000000000;1757.00000000000;1748.00000000000;1745.00000000000;1763.00000000000;1746.00000000000;1747.00000000000;1763.00000000000;1747.00000000000;1759.00000000000;1766.00000000000;1766.00000000000;1761.00000000000;1780.00000000000;1770.00000000000;1770.00000000000;1773.00000000000;1767.00000000000;1748.00000000000;1785.00000000000;1729.00000000000;1752.00000000000;1750.00000000000;1777.00000000000;1764.00000000000;1762.00000000000;1759.00000000000;1761.00000000000;1759.00000000000;1769.00000000000;1779.00000000000;1760.00000000000;1781.00000000000;1754.00000000000;1737.00000000000;1748.00000000000;1705.00000000000;1702.00000000000;1649.00000000000;1655.00000000000;1586.00000000000;1564.00000000000;1611.00000000000;1665.00000000000;1674.00000000000;1726.00000000000;1813.00000000000;1927.00000000000;2033.00000000000;2113.00000000000;2195.00000000000;2224.00000000000;2191.00000000000;2284.00000000000;2297.00000000000;2219.00000000000;2226.00000000000;2193.00000000000;2171.00000000000;2189.00000000000;2181.00000000000;2159.00000000000;2159.00000000000;2143.00000000000;2143.00000000000;2115.00000000000;2182.00000000000;2159.00000000000;2212.00000000000;2229.00000000000;2211.00000000000;2221.00000000000;2237.00000000000;2262.00000000000;2304.00000000000;2321.00000000000;2319.00000000000;2231.00000000000;2170.00000000000;2168.00000000000;2160.00000000000;2078.00000000000;1854.00000000000;1710.00000000000;1659.00000000000;1645.00000000000;1663.00000000000;1651.00000000000;1658.00000000000;1624.00000000000;1622.00000000000;1597.00000000000;1566.00000000000;1603.00000000000;1631.00000000000;1666.00000000000;1725.00000000000;1741.00000000000;1737.00000000000;1775.00000000000;1776.00000000000;1786.00000000000;1798.00000000000;1783.00000000000;1802.00000000000;1791.00000000000;1772.00000000000;1748.00000000000;1764.00000000000;1785.00000000000;1779.00000000000;1775.00000000000;1763.00000000000;1768.00000000000;1753.00000000000;1745.00000000000;1763.00000000000;1770.00000000000;1757.00000000000;1767.00000000000;1778.00000000000;1752.00000000000;1783.00000000000;1791.00000000000;1776.00000000000;1776.00000000000;1760.00000000000;1767.00000000000;1763.00000000000;1756.00000000000
Gyro Z : 1805.00000000000;1796.00000000000;1802.00000000000;1817.00000000000;1803.00000000000;1821.00000000000;1806.00000000000;1799.00000000000;1793.00000000000;1804.00000000000;1803.00000000000;1796.00000000000;1819.00000000000;1798.00000000000;1794.00000000000;1791.00000000000;1793.00000000000;1813.00000000000;1802.00000000000;1799.00000000000;1794.00000000000;1795.00000000000;1795.00000000000;1815.00000000000;1804.00000000000;1819.00000000000;1815.00000000000;1791.00000000000;1810.00000000000;1795.00000000000;1810.00000000000;1787.00000000000;1814.00000000000;1826.00000000000;1800.00000000000;1770.00000000000;1801.00000000000;1808.00000000000;1797.00000000000;1817.00000000000;1801.00000000000;1788.00000000000;1782.00000000000;1815.00000000000;1801.00000000000;1793.00000000000;1795.00000000000;1800.00000000000;1798.00000000000;1811.00000000000;1823.00000000000;1805.00000000000;1831.00000000000;1805.00000000000;1789.00000000000;1795.00000000000;1783.00000000000;1747.00000000000;1737.00000000000;1687.00000000000;1633.00000000000;1643.00000000000;1659.00000000000;1717.00000000000;1765.00000000000;1777.00000000000;1867.00000000000;1968.00000000000;2113.00000000000;2146.00000000000;2281.00000000000;2366.00000000000;2337.00000000000;2443.00000000000;2516.00000000000;2542.00000000000;2602.00000000000;2680.00000000000;2713.00000000000;2732.00000000000;2759.00000000000;2779.00000000000;2786.00000000000;2782.00000000000;2794.00000000000;2794.00000000000;2791.00000000000;2803.00000000000;2781.00000000000;2790.00000000000;2803.00000000000;2729.00000000000;2751.00000000000;2770.00000000000;2667.00000000000;2519.00000000000;2340.00000000000;2244.00000000000;2142.00000000000;2068.00000000000;1918.00000000000;1755.00000000000;1676.00000000000;1556.00000000000;1550.00000000000;1526.00000000000;1545.00000000000;1482.00000000000;1436.00000000000;1420.00000000000;1447.00000000000;1459.00000000000;1505.00000000000;1543.00000000000;1573.00000000000;1609.00000000000;1596.00000000000;1657.00000000000;1667.00000000000;1666.00000000000;1703.00000000000;1744.00000000000;1720.00000000000;1767.00000000000;1780.00000000000;1787.00000000000;1764.00000000000;1755.00000000000;1752.00000000000;1779.00000000000;1726.00000000000;1732.00000000000;1737.00000000000;1728.00000000000;1722.00000000000;1732.00000000000;1740.00000000000;1727.00000000000;1729.00000000000;1726.00000000000;1702.00000000000;1747.00000000000;1739.00000000000;1737.00000000000;1735.00000000000;1757.00000000000;1753.00000000000;1738.00000000000;1753.00000000000;1755.00000000000
