COMMAND 1 SAMPLE 1
Accel X : 2802.00000000000;2845.00000000000;2831.00000000000;2818.00000000000;2823.00000000000;2828.00000000000;2821.00000000000;2803.00000000000;2833.00000000000;2807.00000000000;2842.00000000000;2851.00000000000;2809.00000000000;2838.00000000000;2836.00000000000;2806.00000000000;2825.00000000000;2821.00000000000;2831.00000000000;2809.00000000000;2802.00000000000;2818.00000000000;2821.00000000000;2814.00000000000;2821.00000000000;2813.00000000000;2819.00000000000;2814.00000000000;2822.00000000000;2822.00000000000;2826.00000000000;2841.00000000000;2820.00000000000;2843.00000000000;2827.00000000000;2811.00000000000;2825.00000000000;2820.00000000000;2821.00000000000;2813.00000000000;2814.00000000000;2815.00000000000;2814.00000000000;2828.00000000000;2804.00000000000;2813.00000000000;2816.00000000000;2797.00000000000;2784.00000000000;2792.00000000000;2804.00000000000;2825.00000000000;2863.00000000000;2890.00000000000;2827.00000000000;2743.00000000000;2726.00000000000;2739.00000000000;2748.00000000000;2729.00000000000;2840.00000000000;3080.00000000000;3028.00000000000;2773.00000000000;2621.00000000000;2717.00000000000;2835.00000000000;2886.00000000000;2800.00000000000;2738.00000000000;2775.00000000000;2688.00000000000;2639.00000000000;2645.00000000000;2592.00000000000;2561.00000000000;2538.00000000000;2600.00000000000;2684.00000000000;2711.00000000000;2740.00000000000;2766.00000000000;2726.00000000000;2724.00000000000;2739.00000000000;2808.00000000000;2815.00000000000;2833.00000000000;2879.00000000000;2888.00000000000;2860.00000000000;2900.00000000000;2811.00000000000;2730.00000000000;2835.00000000000;2787.00000000000;2697.00000000000;2690.00000000000;2598.00000000000;2671.00000000000;2874.00000000000;2997.00000000000;3017.00000000000;2949.00000000000;2898.00000000000;2885.00000000000;2900.00000000000;2886.00000000000;2880.00000000000;2889.00000000000;2909.00000000000;2887.00000000000;2822.00000000000;2780.00000000000;2773.00000000000;2790.00000000000;2796.00000000000;2725.00000000000;2758.00000000000;2759.00000000000;2772.00000000000;2788.00000000000;2822.00000000000;2807.00000000000;2804.00000000000;2848.00000000000;2866.00000000000;2850.00000000000;2845.00000000000;2827.00000000000;2860.00000000000;2839.00000000000;2825.00000000000;2859.00000000000;2834.00000000000;2836.00000000000;2839.00000000000;2767.00000000000;2787.00000000000;2786.00000000000;2762.00000000000;2777.00000000000;2809.00000000000;2809.00000000000;2802.00000000000;2820.00000000000;2840.00000000000;2810.00000000000;2814.00000000000;2838.00000000000
Accel Y : 1803.00000000000;1825.00000000000;1825.00000000000;1810.00000000000;1839.00000000000;1799.00000000000;1804.00000000000;1814.00000000000;1822.00000000000;1826.00000000000;1813.00000000000;1806.00000000000;1827.00000000000;1823.00000000000;1815.00000000000;1818.00000000000;1798.00000000000;1812.00000000000;1811.00000000000;1801.00000000000;1805.00000000000;1821.00000000000;1797.00000000000;1797.00000000000;1801.00000000000;1788.00000000000;1802.00000000000;1787.00000000000;1797.00000000000;1796.00000000000;1801.00000000000;1805.00000000000;1804.00000000000;1840.00000000000;1815.00000000000;1827.00000000000;1810.00000000000;1835.00000000000;1833.00000000000;1849.00000000000;1813.00000000000;1844.00000000000;1835.00000000000;1815.00000000000;1824.00000000000;1802.00000000000;1793.00000000000;1792.00000000000;1751.00000000000;1689.00000000000;1627.00000000000;1509.00000000000;1454.00000000000;1376.00000000000;1263.00000000000;1193.00000000000;1166.00000000000;1190.00000000000;1198.00000000000;1237.00000000000;1324.00000000000;1420.00000000000;1482.00000000000;1534.00000000000;1920.00000000000;2349.00000000000;2676.00000000000;2850.00000000000;2963.00000000000;2906.00000000000;2805.00000000000;2558.00000000000;2392.00000000000;2363.00000000000;2328.00000000000;2299.00000000000;2315.00000000000;2328.00000000000;2276.00000000000;2300.00000000000;2321.00000000000;2400.00000000000;2384.00000000000;2321.00000000000;2365.00000000000;2384.00000000000;2408.00000000000;2339.00000000000;2385.00000000000;2373.00000000000;2293.00000000000;2190.00000000000;2090.00000000000;2039.00000000000;1942.00000000000;1707.00000000000;1469.00000000000;1366.00000000000;1183.00000000000;1065.00000000000;1109.00000000000;1183.00000000000;1310.00000000000;1415.00000000000;1479.00000000000;1565.00000000000;1645.00000000000;1718.00000000000;1756.00000000000;1791.00000000000;1799.00000000000;1836.00000000000;1855.00000000000;1896.00000000000;1898.00000000000;1905.00000000000;1923.00000000000;1883.00000000000;1882.00000000000;1854.00000000000;1847.00000000000;1832.00000000000;1830.00000000000;1780.00000000000;1804.00000000000;1784.00000000000;1813.00000000000;1798.00000000000;1805.00000000000;1784.00000000000;1788.00000000000;1798.00000000000;1816.00000000000;1836.00000000000;1835.00000000000;1858.00000000000;1861.00000000000;1854.00000000000;1857.00000000000;1846.00000000000;1868.00000000000;1859.00000000000;1857.00000000000;1852.00000000000;1858.00000000000;1840.00000000000;1834.00000000000;1838.00000000000;1826.00000000000;1820.00000000000
Accel Z : 1894.00000000000;1921.00000000000;1921.00000000000;1907.00000000000;1910.00000000000;1926.00000000000;1915.00000000000;1922.00000000000;1920.00000000000;1913.00000000000;1915.00000000000;1911.00000000000;1917.00000000000;1896.00000000000;1915.00000000000;1928.00000000000;1915.00000000000;1914.00000000000;1923.00000000000;1918.00000000000;1912.00000000000;1935.00000000000;1916.00000000000;1912.00000000000;1904.00000000000;1906.00000000000;1906.00000000000;1910.00000000000;1904.00000000000;1905.00000000000;1890.00000000000;1898.00000000000;1913.00000000000;1923.00000000000;1926.00000000000;1926.00000000000;1918.00000000000;1928.00000000000;1930.00000000000;1935.00000000000;1911.00000000000;1917.00000000000;1945.00000000000;1931.00000000000;1922.00000000000;1938.00000000000;1930.00000000000;1908.00000000000;1909.00000000000;1958.00000000000;1942.00000000000;1992.00000000000;2059.00000000000;2117.00000000000;2158.00000000000;2192.00000000000;2244.00000000000;2254.00000000000;2216.00000000000;2162.00000000000;2088.00000000000;2040.00000000000;1962.00000000000;1805.00000000000;1842.00000000000;1913.00000000000;1936.00000000000;1883.00000000000;1725.00000000000;1779.00000000000;1826.00000000000;1842.00000000000;1882.00000000000;1965.00000000000;1986.00000000000;1986.00000000000;1995.00000000000;1972.00000000000;1960.00000000000;1953.00000000000;1935.00000000000;1896.00000000000;1846.00000000000;1912.00000000000;1970.00000000000;1943.00000000000;1929.00000000000;1892.00000000000;1869.00000000000;1859.00000000000;1859.00000000000;1865.00000000000;1827.00000000000;1837.00000000000;1821.00000000000;1899.00000000000;1958.00000000000;2070.00000000000;2097.00000000000;2048.00000000000;2102.00000000000;2232.00000000000;2278.00000000000;2235.00000000000;2157.00000000000;2100.00000000000;2086.00000000000;2076.00000000000;2006.00000000000;1967.00000000000;1927.00000000000;1895.00000000000;1889.00000000000;1846.00000000000;1866.00000000000;1867.00000000000;1876.00000000000;1887.00000000000;1922.00000000000;1911.00000000000;1936.00000000000;1957.00000000000;1988.00000000000;1970.00000000000;1972.00000000000;1974.00000000000;1991.00000000000;1953.00000000000;1957.00000000000;1947.00000000000;1949.00000000000;1949.00000000000;1931.00000000000;1906.00000000000;1911.00000000000;1953.00000000000;1914.00000000000;1931.00000000000;1929.00000000000;1944.00000000000;1959.00000000000;1950.00000000000;1946.00000000000;1970.00000000000;1969.00000000000;1943.00000000000;1956.00000000000;1963.00000000000;1953.00000000000;1965.00000000000
Gyro X : 2802.00000000000;2845.00000000000;2831.00000000000;2818.00000000000;2823.00000000000;2828.00000000000;2821.00000000000;2803.00000000000;2833.00000000000;2807.00000000000;2842.00000000000;2851.00000000000;2809.00000000000;2838.00000000000;2836.00000000000;2806.00000000000;2825.00000000000;2821.00000000000;2831.00000000000;2809.00000000000;2802.00000000000;2818.00000000000;2821.00000000000;2814.00000000000;2821.00000000000;2813.00000000000;2819.00000000000;2814.00000000000;2822.00000000000;2822.00000000000;2826.00000000000;2841.00000000000;2820.00000000000;2843.00000000000;2827.00000000000;2811.00000000000;2825.00000000000;2820.00000000000;2821.00000000000;2813.00000000000;2814.00000000000;2815.00000000000;2814.00000000000;2828.00000000000;2804.00000000000;2813.00000000000;2816.00000000000;2797.00000000000;2784.00000000000;2792.00000000000;2804.00000000000;2825.00000000000;2863.00000000000;2890.00000000000;2827.00000000000;2743.00000000000;2726.00000000000;2739.00000000000;2748.00000000000;2729.00000000000;2840.00000000000;3080.00000000000;3028.00000000000;2773.00000000000;2621.00000000000;2717.00000000000;2835.00000000000;2886.00000000000;2800.00000000000;2738.00000000000;2775.00000000000;2688.00000000000;2639.00000000000;2645.00000000000;2592.00000000000;2561.00000000000;2538.00000000000;2600.00000000000;2684.00000000000;2711.00000000000;2740.00000000000;2766.00000000000;2726.00000000000;2724.00000000000;2739.00000000000;2808.00000000000;2815.00000000000;2833.00000000000;2879.00000000000;2888.00000000000;2860.00000000000;2900.00000000000;2811.00000000000;2730.00000000000;2835.00000000000;2787.00000000000;2697.00000000000;2690.00000000000;2598.00000000000;2671.00000000000;2874.00000000000;2997.00000000000;3017.00000000000;2949.00000000000;2898.00000000000;2885.00000000000;2900.00000000000;2886.00000000000;2880.00000000000;2889.00000000000;2909.00000000000;2887.00000000000;2822.00000000000;2780.00000000000;2773.00000000000;2790.00000000000;2796.00000000000;2725.00000000000;2758.00000000000;2759.00000000000;2772.00000000000;2788.00000000000;2822.00000000000;2807.00000000000;2804.00000000000;2848.00000000000;2866.00000000000;2850.00000000000;2845.00000000000;2827.00000000000;2860.00000000000;2839.00000000000;2825.00000000000;2859.00000000000;2834.00000000000;2836.00000000000;2839.00000000000;2767.00000000000;2787.00000000000;2786.00000000000;2762.00000000000;2777.00000000000;2809.00000000000;2809.00000000000;2802.00000000000;2820.00000000000;2840.00000000000;2810.00000000000;2814.00000000000;2838.00000000000
Gyro Y : 1803.00000000000;1825.00000000000;1825.00000000000;1810.00000000000;1839.00000000000;1799.00000000000;1804.00000000000;1814.00000000000;1822.00000000000;1826.00000000000;1813.00000000000;1806.00000000000;1827.00000000000;1823.00000000000;1815.00000000000;1818.00000000000;1798.00000000000;1812.00000000000;1811.00000000000;1801.00000000000;1805.00000000000;1821.00000000000;1797.00000000000;1797.00000000000;1801.00000000000;1788.00000000000;1802.00000000000;1787.00000000000;1797.00000000000;1796.00000000000;1801.00000000000;1805.00000000000;1804.00000000000;1840.00000000000;1815.00000000000;1827.00000000000;1810.00000000000;1835.00000000000;1833.00000000000;1849.00000000000;1813.00000000000;1844.00000000000;1835.00000000000;1815.00000000000;1824.00000000000;1802.00000000000;1793.00000000000;1792.00000000000;1751.00000000000;1689.00000000000;1627.00000000000;1509.00000000000;1454.00000000000;1376.00000000000;1263.00000000000;1193.00000000000;1166.00000000000;1190.00000000000;1198.00000000000;1237.00000000000;1324.00000000000;1420.00000000000;1482.00000000000;1534.00000000000;1920.00000000000;2349.00000000000;2676.00000000000;2850.00000000000;2963.00000000000;2906.00000000000;2805.00000000000;2558.00000000000;2392.00000000000;2363.00000000000;2328.00000000000;2299.00000000000;2315.00000000000;2328.00000000000;2276.00000000000;2300.00000000000;2321.00000000000;2400.00000000000;2384.00000000000;2321.00000000000;2365.00000000000;2384.00000000000;2408.00000000000;2339.00000000000;2385.00000000000;2373.00000000000;2293.00000000000;2190.00000000000;2090.00000000000;2039.00000000000;1942.00000000000;1707.00000000000;1469.00000000000;1366.00000000000;1183.00000000000;1065.00000000000;1109.00000000000;1183.00000000000;1310.00000000000;1415.00000000000;1479.00000000000;1565.00000000000;1645.00000000000;1718.00000000000;1756.00000000000;1791.00000000000;1799.00000000000;1836.00000000000;1855.00000000000;1896.00000000000;1898.00000000000;1905.00000000000;1923.00000000000;1883.00000000000;1882.00000000000;1854.00000000000;1847.00000000000;1832.00000000000;1830.00000000000;1780.00000000000;1804.00000000000;1784.00000000000;1813.00000000000;1798.00000000000;1805.00000000000;1784.00000000000;1788.00000000000;1798.00000000000;1816.00000000000;1836.00000000000;1835.00000000000;1858.00000000000;1861.00000000000;1854.00000000000;1857.00000000000;1846.00000000000;1868.00000000000;1859.00000000000;1857.00000000000;1852.00000000000;1858.00000000000;1840.00000000000;1834.00000000000;1838.00000000000;1826.00000000000;1820.00000000000
Gyro Z : 1894.00000000000;1921.00000000000;1921.00000000000;1907.00000000000;1910.00000000000;1926.00000000000;1915.00000000000;1922.00000000000;1920.00000000000;1913.00000000000;1915.00000000000;1911.00000000000;1917.00000000000;1896.00000000000;1915.00000000000;1928.00000000000;1915.00000000000;1914.00000000000;1923.00000000000;1918.00000000000;1912.00000000000;1935.00000000000;1916.00000000000;1912.00000000000;1904.00000000000;1906.00000000000;1906.00000000000;1910.00000000000;1904.00000000000;1905.00000000000;1890.00000000000;1898.00000000000;1913.00000000000;1923.00000000000;1926.00000000000;1926.00000000000;1918.00000000000;1928.00000000000;1930.00000000000;1935.00000000000;1911.00000000000;1917.00000000000;1945.00000000000;1931.00000000000;1922.00000000000;1938.00000000000;1930.00000000000;1908.00000000000;1909.00000000000;1958.00000000000;1942.00000000000;1992.00000000000;2059.00000000000;2117.00000000000;2158.00000000000;2192.00000000000;2244.00000000000;2254.00000000000;2216.00000000000;2162.00000000000;2088.00000000000;2040.00000000000;1962.00000000000;1805.00000000000;1842.00000000000;1913.00000000000;1936.00000000000;1883.00000000000;1725.00000000000;1779.00000000000;1826.00000000000;1842.00000000000;1882.00000000000;1965.00000000000;1986.00000000000;1986.00000000000;1995.00000000000;1972.00000000000;1960.00000000000;1953.00000000000;1935.00000000000;1896.00000000000;1846.00000000000;1912.00000000000;1970.00000000000;1943.00000000000;1929.00000000000;1892.00000000000;1869.00000000000;1859.00000000000;1859.00000000000;1865.00000000000;1827.00000000000;1837.00000000000;1821.00000000000;1899.00000000000;1958.00000000000;2070.00000000000;2097.00000000000;2048.00000000000;2102.00000000000;2232.00000000000;2278.00000000000;2235.00000000000;2157.00000000000;2100.00000000000;2086.00000000000;2076.00000000000;2006.00000000000;1967.00000000000;1927.00000000000;1895.00000000000;1889.00000000000;1846.00000000000;1866.00000000000;1867.00000000000;1876.00000000000;1887.00000000000;1922.00000000000;1911.00000000000;1936.00000000000;1957.00000000000;1988.00000000000;1970.00000000000;1972.00000000000;1974.00000000000;1991.00000000000;1953.00000000000;1957.00000000000;1947.00000000000;1949.00000000000;1949.00000000000;1931.00000000000;1906.00000000000;1911.00000000000;1953.00000000000;1914.00000000000;1931.00000000000;1929.00000000000;1944.00000000000;1959.00000000000;1950.00000000000;1946.00000000000;1970.00000000000;1969.00000000000;1943.00000000000;1956.00000000000;1963.00000000000;1953.00000000000;1965.00000000000
