COMMAND 5 SAMPLE 1
Accel X : 2814.00000000000;2819.00000000000;2834.00000000000;2814.00000000000;2828.00000000000;2834.00000000000;2800.00000000000;2803.00000000000;2785.00000000000;2825.00000000000;2805.00000000000;2809.00000000000;2808.00000000000;2807.00000000000;2830.00000000000;2822.00000000000;2810.00000000000;2799.00000000000;2824.00000000000;2816.00000000000;2825.00000000000;2813.00000000000;2830.00000000000;2816.00000000000;2799.00000000000;2832.00000000000;2831.00000000000;2801.00000000000;2803.00000000000;2826.00000000000;2828.00000000000;2797.00000000000;2830.00000000000;2811.00000000000;2795.00000000000;2800.00000000000;2762.00000000000;2736.00000000000;2749.00000000000;2760.00000000000;2814.00000000000;2848.00000000000;2742.00000000000;2533.00000000000;2356.00000000000;2335.00000000000;2213.00000000000;2081.00000000000;2054.00000000000;2106.00000000000;2187.00000000000;2184.00000000000;2172.00000000000;2249.00000000000;2396.00000000000;2437.00000000000;2468.00000000000;2436.00000000000;2353.00000000000;2256.00000000000;2244.00000000000;2258.00000000000;2207.00000000000;2216.00000000000;2220.00000000000;2199.00000000000;2146.00000000000;2108.00000000000;2112.00000000000;2082.00000000000;2087.00000000000;2099.00000000000;2148.00000000000;2214.00000000000;2242.00000000000;2227.00000000000;2238.00000000000;2239.00000000000;2195.00000000000;2223.00000000000;2226.00000000000;2265.00000000000;2329.00000000000;2315.00000000000;2387.00000000000;2363.00000000000;2414.00000000000;2498.00000000000;2574.00000000000;2583.00000000000;2589.00000000000;2538.00000000000;2513.00000000000;2501.00000000000;2478.00000000000;2549.00000000000;2617.00000000000;2666.00000000000;2662.00000000000;2612.00000000000;2575.00000000000;2590.00000000000;2569.00000000000;2597.00000000000;2674.00000000000;2683.00000000000;2705.00000000000;2724.00000000000;2739.00000000000;2782.00000000000;2808.00000000000;2805.00000000000;2800.00000000000;2838.00000000000;2799.00000000000;2786.00000000000;2782.00000000000;2809.00000000000;2792.00000000000;2844.00000000000;2800.00000000000;2798.00000000000;2813.00000000000;2803.00000000000;2794.00000000000;2797.00000000000;2801.00000000000;2794.00000000000;2818.00000000000;2809.00000000000;2833.00000000000;2815.00000000000;2793.00000000000;2819.00000000000;2798.00000000000;2826.00000000000;2823.00000000000;2827.00000000000;2830.00000000000;2816.00000000000;2792.00000000000;2787.00000000000;2813.00000000000;2807.00000000000;2828.00000000000;2801.00000000000;2817.00000000000;2821.00000000000;2807.00000000000;2801.00000000000
Accel Y : 1719.00000000000;1722.00000000000;1723.00000000000;1734.00000000000;1743.00000000000;1729.00000000000;1723.00000000000;1724.00000000000;1689.00000000000;1722.00000000000;1734.00000000000;1730.00000000000;1741.00000000000;1729.00000000000;1723.00000000000;1720.00000000000;1708.00000000000;1741.00000000000;1726.00000000000;1715.00000000000;1730.00000000000;1722.00000000000;1718.00000000000;1715.00000000000;1720.00000000000;1705.00000000000;1717.00000000000;1726.00000000000;1708.00000000000;1713.00000000000;1695.00000000000;1727.00000000000;1722.00000000000;1723.00000000000;1693.00000000000;1699.00000000000;1681.00000000000;1647.00000000000;1644.00000000000;1655.00000000000;1666.00000000000;1628.00000000000;1600.00000000000;1591.00000000000;1583.00000000000;1575.00000000000;1582.00000000000;1595.00000000000;1636.00000000000;1744.00000000000;1943.00000000000;2150.00000000000;2434.00000000000;2732.00000000000;3061.00000000000;3371.00000000000;3559.00000000000;3631.00000000000;3489.00000000000;3395.00000000000;3304.00000000000;3252.00000000000;3156.00000000000;3077.00000000000;3025.00000000000;3007.00000000000;2994.00000000000;2924.00000000000;2945.00000000000;2926.00000000000;2909.00000000000;2946.00000000000;2959.00000000000;2979.00000000000;2991.00000000000;3007.00000000000;3002.00000000000;3054.00000000000;3026.00000000000;3011.00000000000;3014.00000000000;2987.00000000000;2965.00000000000;2976.00000000000;2997.00000000000;2959.00000000000;2908.00000000000;2863.00000000000;2740.00000000000;2622.00000000000;2471.00000000000;2319.00000000000;2162.00000000000;2027.00000000000;1939.00000000000;1819.00000000000;1729.00000000000;1697.00000000000;1668.00000000000;1632.00000000000;1610.00000000000;1618.00000000000;1640.00000000000;1634.00000000000;1641.00000000000;1659.00000000000;1674.00000000000;1640.00000000000;1683.00000000000;1683.00000000000;1659.00000000000;1674.00000000000;1656.00000000000;1665.00000000000;1646.00000000000;1662.00000000000;1651.00000000000;1667.00000000000;1644.00000000000;1670.00000000000;1685.00000000000;1652.00000000000;1665.00000000000;1671.00000000000;1659.00000000000;1655.00000000000;1690.00000000000;1683.00000000000;1677.00000000000;1672.00000000000;1695.00000000000;1692.00000000000;1698.00000000000;1708.00000000000;1699.00000000000;1697.00000000000;1726.00000000000;1710.00000000000;1695.00000000000;1720.00000000000;1711.00000000000;1726.00000000000;1705.00000000000;1694.00000000000;1684.00000000000;1691.00000000000;1710.00000000000;1706.00000000000;1701.00000000000;1723.00000000000
Accel Z : 1823.00000000000;1818.00000000000;1812.00000000000;1799.00000000000;1820.00000000000;1807.00000000000;1831.00000000000;1823.00000000000;1831.00000000000;1827.00000000000;1816.00000000000;1829.00000000000;1801.00000000000;1786.00000000000;1813.00000000000;1813.00000000000;1818.00000000000;1803.00000000000;1844.00000000000;1804.00000000000;1816.00000000000;1824.00000000000;1829.00000000000;1837.00000000000;1806.00000000000;1819.00000000000;1797.00000000000;1819.00000000000;1824.00000000000;1826.00000000000;1810.00000000000;1830.00000000000;1832.00000000000;1811.00000000000;1803.00000000000;1822.00000000000;1812.00000000000;1845.00000000000;1836.00000000000;1820.00000000000;1797.00000000000;1824.00000000000;1851.00000000000;1871.00000000000;1882.00000000000;1878.00000000000;1866.00000000000;1847.00000000000;1850.00000000000;1891.00000000000;1931.00000000000;1981.00000000000;2039.00000000000;2097.00000000000;2128.00000000000;2267.00000000000;2419.00000000000;2430.00000000000;2330.00000000000;2286.00000000000;2347.00000000000;2371.00000000000;2337.00000000000;2350.00000000000;2392.00000000000;2411.00000000000;2366.00000000000;2367.00000000000;2370.00000000000;2352.00000000000;2311.00000000000;2297.00000000000;2296.00000000000;2285.00000000000;2306.00000000000;2303.00000000000;2322.00000000000;2334.00000000000;2330.00000000000;2381.00000000000;2403.00000000000;2401.00000000000;2407.00000000000;2435.00000000000;2403.00000000000;2353.00000000000;2315.00000000000;2251.00000000000;2178.00000000000;2105.00000000000;1987.00000000000;1880.00000000000;1795.00000000000;1779.00000000000;1764.00000000000;1697.00000000000;1723.00000000000;1730.00000000000;1742.00000000000;1747.00000000000;1723.00000000000;1731.00000000000;1773.00000000000;1777.00000000000;1769.00000000000;1802.00000000000;1812.00000000000;1790.00000000000;1775.00000000000;1835.00000000000;1834.00000000000;1839.00000000000;1827.00000000000;1836.00000000000;1814.00000000000;1817.00000000000;1835.00000000000;1812.00000000000;1819.00000000000;1804.00000000000;1814.00000000000;1800.00000000000;1799.00000000000;1803.00000000000;1797.00000000000;1816.00000000000;1797.00000000000;1826.00000000000;1804.00000000000;1801.00000000000;1786.00000000000;1796.00000000000;1804.00000000000;1824.00000000000;1798.00000000000;1812.00000000000;1827.00000000000;1823.00000000000;1802.00000000000;1811.00000000000;1831.00000000000;1861.00000000000;1834.00000000000;1810.00000000000;1824.00000000000;1815.00000000000;1844.00000000000;1826.00000000000;1805.00000000000;1816.00000000000
Gyro X : 2814.00000000000;2819.00000000000;2834.00000000000;2814.00000000000;2828.00000000000;2834.00000000000;2800.00000000000;2803.00000000000;2785.00000000000;2825.00000000000;2805.00000000000;2809.00000000000;2808.00000000000;2807.00000000000;2830.00000000000;2822.00000000000;2810.00000000000;2799.00000000000;2824.00000000000;2816.00000000000;2825.00000000000;2813.00000000000;2830.00000000000;2816.00000000000;2799.00000000000;2832.00000000000;2831.00000000000;2801.00000000000;2803.00000000000;2826.00000000000;2828.00000000000;2797.00000000000;2830.00000000000;2811.00000000000;2795.00000000000;2800.00000000000;2762.00000000000;2736.00000000000;2749.00000000000;2760.00000000000;2814.00000000000;2848.00000000000;2742.00000000000;2533.00000000000;2356.00000000000;2335.00000000000;2213.00000000000;2081.00000000000;2054.00000000000;2106.00000000000;2187.00000000000;2184.00000000000;2172.00000000000;2249.00000000000;2396.00000000000;2437.00000000000;2468.00000000000;2436.00000000000;2353.00000000000;2256.00000000000;2244.00000000000;2258.00000000000;2207.00000000000;2216.00000000000;2220.00000000000;2199.00000000000;2146.00000000000;2108.00000000000;2112.00000000000;2082.00000000000;2087.00000000000;2099.00000000000;2148.00000000000;2214.00000000000;2242.00000000000;2227.00000000000;2238.00000000000;2239.00000000000;2195.00000000000;2223.00000000000;2226.00000000000;2265.00000000000;2329.00000000000;2315.00000000000;2387.00000000000;2363.00000000000;2414.00000000000;2498.00000000000;2574.00000000000;2583.00000000000;2589.00000000000;2538.00000000000;2513.00000000000;2501.00000000000;2478.00000000000;2549.00000000000;2617.00000000000;2666.00000000000;2662.00000000000;2612.00000000000;2575.00000000000;2590.00000000000;2569.00000000000;2597.00000000000;2674.00000000000;2683.00000000000;2705.00000000000;2724.00000000000;2739.00000000000;2782.00000000000;2808.00000000000;2805.00000000000;2800.00000000000;2838.00000000000;2799.00000000000;2786.00000000000;2782.00000000000;2809.00000000000;2792.00000000000;2844.00000000000;2800.00000000000;2798.00000000000;2813.00000000000;2803.00000000000;2794.00000000000;2797.00000000000;2801.00000000000;2794.00000000000;2818.00000000000;2809.00000000000;2833.00000000000;2815.00000000000;2793.00000000000;2819.00000000000;2798.00000000000;2826.00000000000;2823.00000000000;2827.00000000000;2830.00000000000;2816.00000000000;2792.00000000000;2787.00000000000;2813.00000000000;2807.00000000000;2828.00000000000;2801.00000000000;2817.00000000000;2821.00000000000;2807.00000000000;2801.00000000000
Gyro Y : 1719.00000000000;1722.00000000000;1723.00000000000;1734.00000000000;1743.00000000000;1729.00000000000;1723.00000000000;1724.00000000000;1689.00000000000;1722.00000000000;1734.00000000000;1730.00000000000;1741.00000000000;1729.00000000000;1723.00000000000;1720.00000000000;1708.00000000000;1741.00000000000;1726.00000000000;1715.00000000000;1730.00000000000;1722.00000000000;1718.00000000000;1715.00000000000;1720.00000000000;1705.00000000000;1717.00000000000;1726.00000000000;1708.00000000000;1713.00000000000;1695.00000000000;1727.00000000000;1722.00000000000;1723.00000000000;1693.00000000000;1699.00000000000;1681.00000000000;1647.00000000000;1644.00000000000;1655.00000000000;1666.00000000000;1628.00000000000;1600.00000000000;1591.00000000000;1583.00000000000;1575.00000000000;1582.00000000000;1595.00000000000;1636.00000000000;1744.00000000000;1943.00000000000;2150.00000000000;2434.00000000000;2732.00000000000;3061.00000000000;3371.00000000000;3559.00000000000;3631.00000000000;3489.00000000000;3395.00000000000;3304.00000000000;3252.00000000000;3156.00000000000;3077.00000000000;3025.00000000000;3007.00000000000;2994.00000000000;2924.00000000000;2945.00000000000;2926.00000000000;2909.00000000000;2946.00000000000;2959.00000000000;2979.00000000000;2991.00000000000;3007.00000000000;3002.00000000000;3054.00000000000;3026.00000000000;3011.00000000000;3014.00000000000;2987.00000000000;2965.00000000000;2976.00000000000;2997.00000000000;2959.00000000000;2908.00000000000;2863.00000000000;2740.00000000000;2622.00000000000;2471.00000000000;2319.00000000000;2162.00000000000;2027.00000000000;1939.00000000000;1819.00000000000;1729.00000000000;1697.00000000000;1668.00000000000;1632.00000000000;1610.00000000000;1618.00000000000;1640.00000000000;1634.00000000000;1641.00000000000;1659.00000000000;1674.00000000000;1640.00000000000;1683.00000000000;1683.00000000000;1659.00000000000;1674.00000000000;1656.00000000000;1665.00000000000;1646.00000000000;1662.00000000000;1651.00000000000;1667.00000000000;1644.00000000000;1670.00000000000;1685.00000000000;1652.00000000000;1665.00000000000;1671.00000000000;1659.00000000000;1655.00000000000;1690.00000000000;1683.00000000000;1677.00000000000;1672.00000000000;1695.00000000000;1692.00000000000;1698.00000000000;1708.00000000000;1699.00000000000;1697.00000000000;1726.00000000000;1710.00000000000;1695.00000000000;1720.00000000000;1711.00000000000;1726.00000000000;1705.00000000000;1694.00000000000;1684.00000000000;1691.00000000000;1710.00000000000;1706.00000000000;1701.00000000000;1723.00000000000
Gyro Z : 1823.00000000000;1818.00000000000;1812.00000000000;1799.00000000000;1820.00000000000;1807.00000000000;1831.00000000000;1823.00000000000;1831.00000000000;1827.00000000000;1816.00000000000;1829.00000000000;1801.00000000000;1786.00000000000;1813.00000000000;1813.00000000000;1818.00000000000;1803.00000000000;1844.00000000000;1804.00000000000;1816.00000000000;1824.00000000000;1829.00000000000;1837.00000000000;1806.00000000000;1819.00000000000;1797.00000000000;1819.00000000000;1824.00000000000;1826.00000000000;1810.00000000000;1830.00000000000;1832.00000000000;1811.00000000000;1803.00000000000;1822.00000000000;1812.00000000000;1845.00000000000;1836.00000000000;1820.00000000000;1797.00000000000;1824.00000000000;1851.00000000000;1871.00000000000;1882.00000000000;1878.00000000000;1866.00000000000;1847.00000000000;1850.00000000000;1891.00000000000;1931.00000000000;1981.00000000000;2039.00000000000;2097.00000000000;2128.00000000000;2267.00000000000;2419.00000000000;2430.00000000000;2330.00000000000;2286.00000000000;2347.00000000000;2371.00000000000;2337.00000000000;2350.00000000000;2392.00000000000;2411.00000000000;2366.00000000000;2367.00000000000;2370.00000000000;2352.00000000000;2311.00000000000;2297.00000000000;2296.00000000000;2285.00000000000;2306.00000000000;2303.00000000000;2322.00000000000;2334.00000000000;2330.00000000000;2381.00000000000;2403.00000000000;2401.00000000000;2407.00000000000;2435.00000000000;2403.00000000000;2353.00000000000;2315.00000000000;2251.00000000000;2178.00000000000;2105.00000000000;1987.00000000000;1880.00000000000;1795.00000000000;1779.00000000000;1764.00000000000;1697.00000000000;1723.00000000000;1730.00000000000;1742.00000000000;1747.00000000000;1723.00000000000;1731.00000000000;1773.00000000000;1777.00000000000;1769.00000000000;1802.00000000000;1812.00000000000;1790.00000000000;1775.00000000000;1835.00000000000;1834.00000000000;1839.00000000000;1827.00000000000;1836.00000000000;1814.00000000000;1817.00000000000;1835.00000000000;1812.00000000000;1819.00000000000;1804.00000000000;1814.00000000000;1800.00000000000;1799.00000000000;1803.00000000000;1797.00000000000;1816.00000000000;1797.00000000000;1826.00000000000;1804.00000000000;1801.00000000000;1786.00000000000;1796.00000000000;1804.00000000000;1824.00000000000;1798.00000000000;1812.00000000000;1827.00000000000;1823.00000000000;1802.00000000000;1811.00000000000;1831.00000000000;1861.00000000000;1834.00000000000;1810.00000000000;1824.00000000000;1815.00000000000;1844.00000000000;1826.00000000000;1805.00000000000;1816.00000000000
