COMMAND 4 SAMPLE 1
Accel X : 2821.00000000000;2846.00000000000;2858.00000000000;2850.00000000000;2830.00000000000;2849.00000000000;2852.00000000000;2825.00000000000;2851.00000000000;2849.00000000000;2856.00000000000;2843.00000000000;2843.00000000000;2852.00000000000;2845.00000000000;2827.00000000000;2845.00000000000;2851.00000000000;2852.00000000000;2844.00000000000;2851.00000000000;2837.00000000000;2860.00000000000;2855.00000000000;2843.00000000000;2855.00000000000;2856.00000000000;2844.00000000000;2865.00000000000;2849.00000000000;2839.00000000000;2856.00000000000;2872.00000000000;2822.00000000000;2845.00000000000;2844.00000000000;2873.00000000000;2857.00000000000;2844.00000000000;2846.00000000000;2849.00000000000;2857.00000000000;2823.00000000000;2846.00000000000;2844.00000000000;2846.00000000000;2849.00000000000;2865.00000000000;2879.00000000000;2892.00000000000;2942.00000000000;2975.00000000000;3065.00000000000;3282.00000000000;3367.00000000000;3540.00000000000;3619.00000000000;3620.00000000000;3506.00000000000;3347.00000000000;3220.00000000000;3119.00000000000;2961.00000000000;2738.00000000000;2592.00000000000;2374.00000000000;2158.00000000000;2046.00000000000;2019.00000000000;1938.00000000000;1891.00000000000;1803.00000000000;1782.00000000000;1795.00000000000;1788.00000000000;1818.00000000000;1875.00000000000;1890.00000000000;1942.00000000000;1913.00000000000;1928.00000000000;1958.00000000000;1974.00000000000;1992.00000000000;1971.00000000000;2008.00000000000;2053.00000000000;2036.00000000000;1975.00000000000;1942.00000000000;2051.00000000000;2114.00000000000;2145.00000000000;2159.00000000000;2300.00000000000;2398.00000000000;2462.00000000000;2482.00000000000;2556.00000000000;2849.00000000000;2953.00000000000;2814.00000000000;2910.00000000000;3094.00000000000;3183.00000000000;3183.00000000000;3170.00000000000;3117.00000000000;3167.00000000000;3108.00000000000;3166.00000000000;3116.00000000000;3100.00000000000;3036.00000000000;3015.00000000000;2973.00000000000;2978.00000000000;2975.00000000000;2961.00000000000;2929.00000000000;2915.00000000000;2867.00000000000;2880.00000000000;2875.00000000000;2848.00000000000;2867.00000000000;2830.00000000000;2848.00000000000;2851.00000000000;2863.00000000000;2840.00000000000;2844.00000000000;2867.00000000000;2830.00000000000;2867.00000000000;2861.00000000000;2869.00000000000;2890.00000000000;2883.00000000000;2884.00000000000;2867.00000000000;2864.00000000000;2873.00000000000;2870.00000000000;2841.00000000000;2854.00000000000;2853.00000000000;2854.00000000000;2847.00000000000;2860.00000000000
Accel Y : 1986.00000000000;1988.00000000000;1997.00000000000;1979.00000000000;1995.00000000000;2007.00000000000;1975.00000000000;1973.00000000000;1985.00000000000;1977.00000000000;1992.00000000000;1978.00000000000;1980.00000000000;1987.00000000000;2006.00000000000;1996.00000000000;1976.00000000000;1995.00000000000;1989.00000000000;1996.00000000000;1995.00000000000;1991.00000000000;1989.00000000000;2013.00000000000;1987.00000000000;1984.00000000000;1994.00000000000;2003.00000000000;1994.00000000000;1985.00000000000;1976.00000000000;2000.00000000000;1983.00000000000;1971.00000000000;2013.00000000000;2003.00000000000;1986.00000000000;1978.00000000000;1993.00000000000;1989.00000000000;1990.00000000000;2002.00000000000;1973.00000000000;1985.00000000000;1988.00000000000;2003.00000000000;1986.00000000000;2001.00000000000;1977.00000000000;1964.00000000000;1903.00000000000;1804.00000000000;1711.00000000000;1654.00000000000;1618.00000000000;1644.00000000000;1686.00000000000;1713.00000000000;1832.00000000000;1893.00000000000;1986.00000000000;2023.00000000000;2033.00000000000;2078.00000000000;2064.00000000000;2007.00000000000;1910.00000000000;1852.00000000000;1791.00000000000;1715.00000000000;1692.00000000000;1589.00000000000;1521.00000000000;1472.00000000000;1459.00000000000;1413.00000000000;1367.00000000000;1325.00000000000;1342.00000000000;1306.00000000000;1271.00000000000;1266.00000000000;1262.00000000000;1273.00000000000;1274.00000000000;1296.00000000000;1374.00000000000;1444.00000000000;1462.00000000000;1500.00000000000;1589.00000000000;1606.00000000000;1607.00000000000;1574.00000000000;1672.00000000000;1684.00000000000;1687.00000000000;1653.00000000000;1698.00000000000;1767.00000000000;1777.00000000000;1713.00000000000;1748.00000000000;1754.00000000000;1760.00000000000;1810.00000000000;1760.00000000000;1795.00000000000;1867.00000000000;1840.00000000000;1812.00000000000;1863.00000000000;1867.00000000000;1884.00000000000;1869.00000000000;1905.00000000000;1931.00000000000;1930.00000000000;1927.00000000000;1941.00000000000;1956.00000000000;1957.00000000000;1969.00000000000;1980.00000000000;1953.00000000000;1953.00000000000;1997.00000000000;1981.00000000000;1982.00000000000;1973.00000000000;1985.00000000000;1948.00000000000;1960.00000000000;1976.00000000000;1981.00000000000;1994.00000000000;1972.00000000000;1990.00000000000;1981.00000000000;1978.00000000000;1978.00000000000;1967.00000000000;1970.00000000000;2008.00000000000;1985.00000000000;1982.00000000000;1992.00000000000;1977.00000000000;2008.00000000000;2001.00000000000
Accel Z : 1961.00000000000;1944.00000000000;1963.00000000000;1918.00000000000;1933.00000000000;1941.00000000000;1940.00000000000;1924.00000000000;1929.00000000000;1938.00000000000;1947.00000000000;1918.00000000000;1933.00000000000;1929.00000000000;1948.00000000000;1942.00000000000;1950.00000000000;1939.00000000000;1932.00000000000;1943.00000000000;1932.00000000000;1919.00000000000;1944.00000000000;1935.00000000000;1917.00000000000;1944.00000000000;1933.00000000000;1916.00000000000;1933.00000000000;1929.00000000000;1922.00000000000;1936.00000000000;1920.00000000000;1929.00000000000;1927.00000000000;1943.00000000000;1931.00000000000;1929.00000000000;1932.00000000000;1912.00000000000;1937.00000000000;1934.00000000000;1935.00000000000;1921.00000000000;1931.00000000000;1924.00000000000;1949.00000000000;1930.00000000000;1943.00000000000;1928.00000000000;1968.00000000000;1991.00000000000;2121.00000000000;2267.00000000000;2279.00000000000;2352.00000000000;2290.00000000000;2281.00000000000;2339.00000000000;2339.00000000000;2333.00000000000;2240.00000000000;2172.00000000000;2143.00000000000;2095.00000000000;2029.00000000000;1932.00000000000;1925.00000000000;1894.00000000000;1871.00000000000;1924.00000000000;1871.00000000000;1857.00000000000;1900.00000000000;1955.00000000000;1961.00000000000;2014.00000000000;2066.00000000000;2100.00000000000;2113.00000000000;2163.00000000000;2179.00000000000;2176.00000000000;2194.00000000000;2168.00000000000;2181.00000000000;2189.00000000000;2164.00000000000;2101.00000000000;2044.00000000000;2125.00000000000;2122.00000000000;2080.00000000000;2023.00000000000;2018.00000000000;2045.00000000000;2037.00000000000;2013.00000000000;1998.00000000000;2047.00000000000;2066.00000000000;1995.00000000000;2008.00000000000;2066.00000000000;2040.00000000000;2037.00000000000;2036.00000000000;2081.00000000000;2093.00000000000;2040.00000000000;2047.00000000000;2044.00000000000;2038.00000000000;1972.00000000000;1935.00000000000;1944.00000000000;1958.00000000000;1905.00000000000;1885.00000000000;1857.00000000000;1871.00000000000;1876.00000000000;1855.00000000000;1835.00000000000;1829.00000000000;1819.00000000000;1850.00000000000;1827.00000000000;1824.00000000000;1852.00000000000;1875.00000000000;1880.00000000000;1861.00000000000;1877.00000000000;1873.00000000000;1891.00000000000;1874.00000000000;1890.00000000000;1864.00000000000;1875.00000000000;1890.00000000000;1862.00000000000;1899.00000000000;1875.00000000000;1901.00000000000;1899.00000000000;1882.00000000000;1856.00000000000;1863.00000000000;1885.00000000000
Gyro X : 2821.00000000000;2846.00000000000;2858.00000000000;2850.00000000000;2830.00000000000;2849.00000000000;2852.00000000000;2825.00000000000;2851.00000000000;2849.00000000000;2856.00000000000;2843.00000000000;2843.00000000000;2852.00000000000;2845.00000000000;2827.00000000000;2845.00000000000;2851.00000000000;2852.00000000000;2844.00000000000;2851.00000000000;2837.00000000000;2860.00000000000;2855.00000000000;2843.00000000000;2855.00000000000;2856.00000000000;2844.00000000000;2865.00000000000;2849.00000000000;2839.00000000000;2856.00000000000;2872.00000000000;2822.00000000000;2845.00000000000;2844.00000000000;2873.00000000000;2857.00000000000;2844.00000000000;2846.00000000000;2849.00000000000;2857.00000000000;2823.00000000000;2846.00000000000;2844.00000000000;2846.00000000000;2849.00000000000;2865.00000000000;2879.00000000000;2892.00000000000;2942.00000000000;2975.00000000000;3065.00000000000;3282.00000000000;3367.00000000000;3540.00000000000;3619.00000000000;3620.00000000000;3506.00000000000;3347.00000000000;3220.00000000000;3119.00000000000;2961.00000000000;2738.00000000000;2592.00000000000;2374.00000000000;2158.00000000000;2046.00000000000;2019.00000000000;1938.00000000000;1891.00000000000;1803.00000000000;1782.00000000000;1795.00000000000;1788.00000000000;1818.00000000000;1875.00000000000;1890.00000000000;1942.00000000000;1913.00000000000;1928.00000000000;1958.00000000000;1974.00000000000;1992.00000000000;1971.00000000000;2008.00000000000;2053.00000000000;2036.00000000000;1975.00000000000;1942.00000000000;2051.00000000000;2114.00000000000;2145.00000000000;2159.00000000000;2300.00000000000;2398.00000000000;2462.00000000000;2482.00000000000;2556.00000000000;2849.00000000000;2953.00000000000;2814.00000000000;2910.00000000000;3094.00000000000;3183.00000000000;3183.00000000000;3170.00000000000;3117.00000000000;3167.00000000000;3108.00000000000;3166.00000000000;3116.00000000000;3100.00000000000;3036.00000000000;3015.00000000000;2973.00000000000;2978.00000000000;2975.00000000000;2961.00000000000;2929.00000000000;2915.00000000000;2867.00000000000;2880.00000000000;2875.00000000000;2848.00000000000;2867.00000000000;2830.00000000000;2848.00000000000;2851.00000000000;2863.00000000000;2840.00000000000;2844.00000000000;2867.00000000000;2830.00000000000;2867.00000000000;2861.00000000000;2869.00000000000;2890.00000000000;2883.00000000000;2884.00000000000;2867.00000000000;2864.00000000000;2873.00000000000;2870.00000000000;2841.00000000000;2854.00000000000;2853.00000000000;2854.00000000000;2847.00000000000;2860.00000000000
Gyro Y : 1986.00000000000;1988.00000000000;1997.00000000000;1979.00000000000;1995.00000000000;2007.00000000000;1975.00000000000;1973.00000000000;1985.00000000000;1977.00000000000;1992.00000000000;1978.00000000000;1980.00000000000;1987.00000000000;2006.00000000000;1996.00000000000;1976.00000000000;1995.00000000000;1989.00000000000;1996.00000000000;1995.00000000000;1991.00000000000;1989.00000000000;2013.00000000000;1987.00000000000;1984.00000000000;1994.00000000000;2003.00000000000;1994.00000000000;1985.00000000000;1976.00000000000;2000.00000000000;1983.00000000000;1971.00000000000;2013.00000000000;2003.00000000000;1986.00000000000;1978.00000000000;1993.00000000000;1989.00000000000;1990.00000000000;2002.00000000000;1973.00000000000;1985.00000000000;1988.00000000000;2003.00000000000;1986.00000000000;2001.00000000000;1977.00000000000;1964.00000000000;1903.00000000000;1804.00000000000;1711.00000000000;1654.00000000000;1618.00000000000;1644.00000000000;1686.00000000000;1713.00000000000;1832.00000000000;1893.00000000000;1986.00000000000;2023.00000000000;2033.00000000000;2078.00000000000;2064.00000000000;2007.00000000000;1910.00000000000;1852.00000000000;1791.00000000000;1715.00000000000;1692.00000000000;1589.00000000000;1521.00000000000;1472.00000000000;1459.00000000000;1413.00000000000;1367.00000000000;1325.00000000000;1342.00000000000;1306.00000000000;1271.00000000000;1266.00000000000;1262.00000000000;1273.00000000000;1274.00000000000;1296.00000000000;1374.00000000000;1444.00000000000;1462.00000000000;1500.00000000000;1589.00000000000;1606.00000000000;1607.00000000000;1574.00000000000;1672.00000000000;1684.00000000000;1687.00000000000;1653.00000000000;1698.00000000000;1767.00000000000;1777.00000000000;1713.00000000000;1748.00000000000;1754.00000000000;1760.00000000000;1810.00000000000;1760.00000000000;1795.00000000000;1867.00000000000;1840.00000000000;1812.00000000000;1863.00000000000;1867.00000000000;1884.00000000000;1869.00000000000;1905.00000000000;1931.00000000000;1930.00000000000;1927.00000000000;1941.00000000000;1956.00000000000;1957.00000000000;1969.00000000000;1980.00000000000;1953.00000000000;1953.00000000000;1997.00000000000;1981.00000000000;1982.00000000000;1973.00000000000;1985.00000000000;1948.00000000000;1960.00000000000;1976.00000000000;1981.00000000000;1994.00000000000;1972.00000000000;1990.00000000000;1981.00000000000;1978.00000000000;1978.00000000000;1967.00000000000;1970.00000000000;2008.00000000000;1985.00000000000;1982.00000000000;1992.00000000000;1977.00000000000;2008.00000000000;2001.00000000000
Gyro Z : 1961.00000000000;1944.00000000000;1963.00000000000;1918.00000000000;1933.00000000000;1941.00000000000;1940.00000000000;1924.00000000000;1929.00000000000;1938.00000000000;1947.00000000000;1918.00000000000;1933.00000000000;1929.00000000000;1948.00000000000;1942.00000000000;1950.00000000000;1939.00000000000;1932.00000000000;1943.00000000000;1932.00000000000;1919.00000000000;1944.00000000000;1935.00000000000;1917.00000000000;1944.00000000000;1933.00000000000;1916.00000000000;1933.00000000000;1929.00000000000;1922.00000000000;1936.00000000000;1920.00000000000;1929.00000000000;1927.00000000000;1943.00000000000;1931.00000000000;1929.00000000000;1932.00000000000;1912.00000000000;1937.00000000000;1934.00000000000;1935.00000000000;1921.00000000000;1931.00000000000;1924.00000000000;1949.00000000000;1930.00000000000;1943.00000000000;1928.00000000000;1968.00000000000;1991.00000000000;2121.00000000000;2267.00000000000;2279.00000000000;2352.00000000000;2290.00000000000;2281.00000000000;2339.00000000000;2339.00000000000;2333.00000000000;2240.00000000000;2172.00000000000;2143.00000000000;2095.00000000000;2029.00000000000;1932.00000000000;1925.00000000000;1894.00000000000;1871.00000000000;1924.00000000000;1871.00000000000;1857.00000000000;1900.00000000000;1955.00000000000;1961.00000000000;2014.00000000000;2066.00000000000;2100.00000000000;2113.00000000000;2163.00000000000;2179.00000000000;2176.00000000000;2194.00000000000;2168.00000000000;2181.00000000000;2189.00000000000;2164.00000000000;2101.00000000000;2044.00000000000;2125.00000000000;2122.00000000000;2080.00000000000;2023.00000000000;2018.00000000000;2045.00000000000;2037.00000000000;2013.00000000000;1998.00000000000;2047.00000000000;2066.00000000000;1995.00000000000;2008.00000000000;2066.00000000000;2040.00000000000;2037.00000000000;2036.00000000000;2081.00000000000;2093.00000000000;2040.00000000000;2047.00000000000;2044.00000000000;2038.00000000000;1972.00000000000;1935.00000000000;1944.00000000000;1958.00000000000;1905.00000000000;1885.00000000000;1857.00000000000;1871.00000000000;1876.00000000000;1855.00000000000;1835.00000000000;1829.00000000000;1819.00000000000;1850.00000000000;1827.00000000000;1824.00000000000;1852.00000000000;1875.00000000000;1880.00000000000;1861.00000000000;1877.00000000000;1873.00000000000;1891.00000000000;1874.00000000000;1890.00000000000;1864.00000000000;1875.00000000000;1890.00000000000;1862.00000000000;1899.00000000000;1875.00000000000;1901.00000000000;1899.00000000000;1882.00000000000;1856.00000000000;1863.00000000000;1885.00000000000
