COMMAND 1 SAMPLE 1
Accel X : 2851.00000000000;2848.00000000000;2823.00000000000;2832.00000000000;2850.00000000000;2845.00000000000;2837.00000000000;2849.00000000000;2848.00000000000;2844.00000000000;2816.00000000000;2857.00000000000;2845.00000000000;2845.00000000000;2842.00000000000;2845.00000000000;2869.00000000000;2852.00000000000;2834.00000000000;2837.00000000000;2823.00000000000;2847.00000000000;2826.00000000000;2834.00000000000;2845.00000000000;2851.00000000000;2838.00000000000;2867.00000000000;2815.00000000000;2815.00000000000;2829.00000000000;2847.00000000000;2856.00000000000;2833.00000000000;2833.00000000000;2837.00000000000;2836.00000000000;2827.00000000000;2841.00000000000;2849.00000000000;2817.00000000000;2840.00000000000;2809.00000000000;2799.00000000000;2799.00000000000;2856.00000000000;2836.00000000000;2770.00000000000;2714.00000000000;2748.00000000000;2800.00000000000;2751.00000000000;2803.00000000000;2915.00000000000;3147.00000000000;3094.00000000000;3008.00000000000;2785.00000000000;2799.00000000000;3011.00000000000;3113.00000000000;2955.00000000000;2772.00000000000;2738.00000000000;2731.00000000000;2636.00000000000;2631.00000000000;2698.00000000000;2721.00000000000;2727.00000000000;2716.00000000000;2661.00000000000;2663.00000000000;2696.00000000000;2710.00000000000;2740.00000000000;2774.00000000000;2765.00000000000;2765.00000000000;2790.00000000000;2826.00000000000;2814.00000000000;2820.00000000000;2841.00000000000;2843.00000000000;2822.00000000000;2835.00000000000;2735.00000000000;2704.00000000000;2768.00000000000;2803.00000000000;2819.00000000000;2855.00000000000;2797.00000000000;2751.00000000000;2831.00000000000;2884.00000000000;2878.00000000000;2869.00000000000;2864.00000000000;2829.00000000000;2816.00000000000;2770.00000000000;2764.00000000000;2795.00000000000;2854.00000000000;2883.00000000000;2903.00000000000;2906.00000000000;2880.00000000000;2916.00000000000;2966.00000000000;2972.00000000000;2927.00000000000;2913.00000000000;2873.00000000000;2875.00000000000;2861.00000000000;2833.00000000000;2800.00000000000;2811.00000000000;2816.00000000000;2832.00000000000;2836.00000000000;2831.00000000000;2837.00000000000;2862.00000000000;2837.00000000000;2850.00000000000;2870.00000000000;2869.00000000000;2848.00000000000;2845.00000000000;2868.00000000000;2894.00000000000;2871.00000000000;2857.00000000000;2871.00000000000;2827.00000000000;2819.00000000000;2826.00000000000;2830.00000000000;2808.00000000000;2828.00000000000;2833.00000000000;2829.00000000000;2854.00000000000;2835.00000000000;2843.00000000000;2847.00000000000
Accel Y : 1854.00000000000;1853.00000000000;1875.00000000000;1852.00000000000;1828.00000000000;1843.00000000000;1866.00000000000;1867.00000000000;1839.00000000000;1843.00000000000;1866.00000000000;1866.00000000000;1849.00000000000;1857.00000000000;1842.00000000000;1861.00000000000;1863.00000000000;1883.00000000000;1859.00000000000;1861.00000000000;1895.00000000000;1862.00000000000;1875.00000000000;1861.00000000000;1876.00000000000;1877.00000000000;1849.00000000000;1874.00000000000;1863.00000000000;1854.00000000000;1840.00000000000;1836.00000000000;1851.00000000000;1846.00000000000;1864.00000000000;1865.00000000000;1842.00000000000;1855.00000000000;1855.00000000000;1838.00000000000;1829.00000000000;1787.00000000000;1743.00000000000;1689.00000000000;1599.00000000000;1470.00000000000;1385.00000000000;1296.00000000000;1221.00000000000;1235.00000000000;1281.00000000000;1345.00000000000;1409.00000000000;1560.00000000000;1673.00000000000;1746.00000000000;1815.00000000000;1943.00000000000;2192.00000000000;2331.00000000000;2431.00000000000;2474.00000000000;2574.00000000000;2618.00000000000;2609.00000000000;2571.00000000000;2468.00000000000;2383.00000000000;2308.00000000000;2256.00000000000;2239.00000000000;2234.00000000000;2209.00000000000;2192.00000000000;2201.00000000000;2156.00000000000;2184.00000000000;2171.00000000000;2185.00000000000;2185.00000000000;2233.00000000000;2249.00000000000;2237.00000000000;2264.00000000000;2316.00000000000;2273.00000000000;2285.00000000000;2291.00000000000;2284.00000000000;2320.00000000000;2239.00000000000;2129.00000000000;2167.00000000000;2241.00000000000;2142.00000000000;2022.00000000000;1899.00000000000;1867.00000000000;1915.00000000000;1873.00000000000;1656.00000000000;1486.00000000000;1481.00000000000;1408.00000000000;1323.00000000000;1272.00000000000;1259.00000000000;1360.00000000000;1429.00000000000;1495.00000000000;1577.00000000000;1669.00000000000;1698.00000000000;1732.00000000000;1791.00000000000;1815.00000000000;1807.00000000000;1826.00000000000;1818.00000000000;1849.00000000000;1885.00000000000;1863.00000000000;1859.00000000000;1869.00000000000;1858.00000000000;1855.00000000000;1821.00000000000;1832.00000000000;1821.00000000000;1832.00000000000;1849.00000000000;1806.00000000000;1823.00000000000;1822.00000000000;1849.00000000000;1829.00000000000;1843.00000000000;1845.00000000000;1847.00000000000;1853.00000000000;1869.00000000000;1868.00000000000;1839.00000000000;1857.00000000000;1850.00000000000;1832.00000000000;1827.00000000000;1841.00000000000;1836.00000000000;1844.00000000000
Accel Z : 1885.00000000000;1866.00000000000;1864.00000000000;1858.00000000000;1844.00000000000;1893.00000000000;1867.00000000000;1861.00000000000;1869.00000000000;1876.00000000000;1887.00000000000;1894.00000000000;1863.00000000000;1880.00000000000;1851.00000000000;1864.00000000000;1867.00000000000;1877.00000000000;1890.00000000000;1864.00000000000;1883.00000000000;1875.00000000000;1883.00000000000;1869.00000000000;1887.00000000000;1861.00000000000;1835.00000000000;1869.00000000000;1930.00000000000;1931.00000000000;1896.00000000000;1890.00000000000;1870.00000000000;1876.00000000000;1865.00000000000;1857.00000000000;1870.00000000000;1866.00000000000;1846.00000000000;1854.00000000000;1871.00000000000;1847.00000000000;1866.00000000000;1913.00000000000;1921.00000000000;2021.00000000000;2158.00000000000;2134.00000000000;2134.00000000000;2171.00000000000;2173.00000000000;2114.00000000000;2050.00000000000;1979.00000000000;1966.00000000000;1927.00000000000;1888.00000000000;1771.00000000000;1878.00000000000;1913.00000000000;1943.00000000000;1812.00000000000;1808.00000000000;1866.00000000000;1927.00000000000;1840.00000000000;1821.00000000000;1829.00000000000;1791.00000000000;1844.00000000000;1903.00000000000;1904.00000000000;1930.00000000000;1941.00000000000;1960.00000000000;2001.00000000000;2007.00000000000;1999.00000000000;2001.00000000000;1980.00000000000;1962.00000000000;1954.00000000000;1948.00000000000;1947.00000000000;1925.00000000000;1856.00000000000;1861.00000000000;1911.00000000000;1928.00000000000;1908.00000000000;1820.00000000000;1824.00000000000;1834.00000000000;1915.00000000000;1838.00000000000;1725.00000000000;1640.00000000000;1667.00000000000;1810.00000000000;1865.00000000000;1827.00000000000;1692.00000000000;1795.00000000000;1879.00000000000;1851.00000000000;1814.00000000000;1841.00000000000;1900.00000000000;1960.00000000000;1919.00000000000;1943.00000000000;1907.00000000000;1871.00000000000;1809.00000000000;1804.00000000000;1832.00000000000;1822.00000000000;1830.00000000000;1769.00000000000;1773.00000000000;1791.00000000000;1796.00000000000;1790.00000000000;1807.00000000000;1807.00000000000;1816.00000000000;1796.00000000000;1823.00000000000;1830.00000000000;1845.00000000000;1841.00000000000;1822.00000000000;1839.00000000000;1828.00000000000;1840.00000000000;1840.00000000000;1850.00000000000;1840.00000000000;1845.00000000000;1832.00000000000;1826.00000000000;1827.00000000000;1817.00000000000;1837.00000000000;1821.00000000000;1794.00000000000;1820.00000000000;1811.00000000000;1815.00000000000;1813.00000000000
Gyro X : 2851.00000000000;2848.00000000000;2823.00000000000;2832.00000000000;2850.00000000000;2845.00000000000;2837.00000000000;2849.00000000000;2848.00000000000;2844.00000000000;2816.00000000000;2857.00000000000;2845.00000000000;2845.00000000000;2842.00000000000;2845.00000000000;2869.00000000000;2852.00000000000;2834.00000000000;2837.00000000000;2823.00000000000;2847.00000000000;2826.00000000000;2834.00000000000;2845.00000000000;2851.00000000000;2838.00000000000;2867.00000000000;2815.00000000000;2815.00000000000;2829.00000000000;2847.00000000000;2856.00000000000;2833.00000000000;2833.00000000000;2837.00000000000;2836.00000000000;2827.00000000000;2841.00000000000;2849.00000000000;2817.00000000000;2840.00000000000;2809.00000000000;2799.00000000000;2799.00000000000;2856.00000000000;2836.00000000000;2770.00000000000;2714.00000000000;2748.00000000000;2800.00000000000;2751.00000000000;2803.00000000000;2915.00000000000;3147.00000000000;3094.00000000000;3008.00000000000;2785.00000000000;2799.00000000000;3011.00000000000;3113.00000000000;2955.00000000000;2772.00000000000;2738.00000000000;2731.00000000000;2636.00000000000;2631.00000000000;2698.00000000000;2721.00000000000;2727.00000000000;2716.00000000000;2661.00000000000;2663.00000000000;2696.00000000000;2710.00000000000;2740.00000000000;2774.00000000000;2765.00000000000;2765.00000000000;2790.00000000000;2826.00000000000;2814.00000000000;2820.00000000000;2841.00000000000;2843.00000000000;2822.00000000000;2835.00000000000;2735.00000000000;2704.00000000000;2768.00000000000;2803.00000000000;2819.00000000000;2855.00000000000;2797.00000000000;2751.00000000000;2831.00000000000;2884.00000000000;2878.00000000000;2869.00000000000;2864.00000000000;2829.00000000000;2816.00000000000;2770.00000000000;2764.00000000000;2795.00000000000;2854.00000000000;2883.00000000000;2903.00000000000;2906.00000000000;2880.00000000000;2916.00000000000;2966.00000000000;2972.00000000000;2927.00000000000;2913.00000000000;2873.00000000000;2875.00000000000;2861.00000000000;2833.00000000000;2800.00000000000;2811.00000000000;2816.00000000000;2832.00000000000;2836.00000000000;2831.00000000000;2837.00000000000;2862.00000000000;2837.00000000000;2850.00000000000;2870.00000000000;2869.00000000000;2848.00000000000;2845.00000000000;2868.00000000000;2894.00000000000;2871.00000000000;2857.00000000000;2871.00000000000;2827.00000000000;2819.00000000000;2826.00000000000;2830.00000000000;2808.00000000000;2828.00000000000;2833.00000000000;2829.00000000000;2854.00000000000;2835.00000000000;2843.00000000000;2847.00000000000
Gyro Y : 1854.00000000000;1853.00000000000;1875.00000000000;1852.00000000000;1828.00000000000;1843.00000000000;1866.00000000000;1867.00000000000;1839.00000000000;1843.00000000000;1866.00000000000;1866.00000000000;1849.00000000000;1857.00000000000;1842.00000000000;1861.00000000000;1863.00000000000;1883.00000000000;1859.00000000000;1861.00000000000;1895.00000000000;1862.00000000000;1875.00000000000;1861.00000000000;1876.00000000000;1877.00000000000;1849.00000000000;1874.00000000000;1863.00000000000;1854.00000000000;1840.00000000000;1836.00000000000;1851.00000000000;1846.00000000000;1864.00000000000;1865.00000000000;1842.00000000000;1855.00000000000;1855.00000000000;1838.00000000000;1829.00000000000;1787.00000000000;1743.00000000000;1689.00000000000;1599.00000000000;1470.00000000000;1385.00000000000;1296.00000000000;1221.00000000000;1235.00000000000;1281.00000000000;1345.00000000000;1409.00000000000;1560.00000000000;1673.00000000000;1746.00000000000;1815.00000000000;1943.00000000000;2192.00000000000;2331.00000000000;2431.00000000000;2474.00000000000;2574.00000000000;2618.00000000000;2609.00000000000;2571.00000000000;2468.00000000000;2383.00000000000;2308.00000000000;2256.00000000000;2239.00000000000;2234.00000000000;2209.00000000000;2192.00000000000;2201.00000000000;2156.00000000000;2184.00000000000;2171.00000000000;2185.00000000000;2185.00000000000;2233.00000000000;2249.00000000000;2237.00000000000;2264.00000000000;2316.00000000000;2273.00000000000;2285.00000000000;2291.00000000000;2284.00000000000;2320.00000000000;2239.00000000000;2129.00000000000;2167.00000000000;2241.00000000000;2142.00000000000;2022.00000000000;1899.00000000000;1867.00000000000;1915.00000000000;1873.00000000000;1656.00000000000;1486.00000000000;1481.00000000000;1408.00000000000;1323.00000000000;1272.00000000000;1259.00000000000;1360.00000000000;1429.00000000000;1495.00000000000;1577.00000000000;1669.00000000000;1698.00000000000;1732.00000000000;1791.00000000000;1815.00000000000;1807.00000000000;1826.00000000000;1818.00000000000;1849.00000000000;1885.00000000000;1863.00000000000;1859.00000000000;1869.00000000000;1858.00000000000;1855.00000000000;1821.00000000000;1832.00000000000;1821.00000000000;1832.00000000000;1849.00000000000;1806.00000000000;1823.00000000000;1822.00000000000;1849.00000000000;1829.00000000000;1843.00000000000;1845.00000000000;1847.00000000000;1853.00000000000;1869.00000000000;1868.00000000000;1839.00000000000;1857.00000000000;1850.00000000000;1832.00000000000;1827.00000000000;1841.00000000000;1836.00000000000;1844.00000000000
Gyro Z : 1885.00000000000;1866.00000000000;1864.00000000000;1858.00000000000;1844.00000000000;1893.00000000000;1867.00000000000;1861.00000000000;1869.00000000000;1876.00000000000;1887.00000000000;1894.00000000000;1863.00000000000;1880.00000000000;1851.00000000000;1864.00000000000;1867.00000000000;1877.00000000000;1890.00000000000;1864.00000000000;1883.00000000000;1875.00000000000;1883.00000000000;1869.00000000000;1887.00000000000;1861.00000000000;1835.00000000000;1869.00000000000;1930.00000000000;1931.00000000000;1896.00000000000;1890.00000000000;1870.00000000000;1876.00000000000;1865.00000000000;1857.00000000000;1870.00000000000;1866.00000000000;1846.00000000000;1854.00000000000;1871.00000000000;1847.00000000000;1866.00000000000;1913.00000000000;1921.00000000000;2021.00000000000;2158.00000000000;2134.00000000000;2134.00000000000;2171.00000000000;2173.00000000000;2114.00000000000;2050.00000000000;1979.00000000000;1966.00000000000;1927.00000000000;1888.00000000000;1771.00000000000;1878.00000000000;1913.00000000000;1943.00000000000;1812.00000000000;1808.00000000000;1866.00000000000;1927.00000000000;1840.00000000000;1821.00000000000;1829.00000000000;1791.00000000000;1844.00000000000;1903.00000000000;1904.00000000000;1930.00000000000;1941.00000000000;1960.00000000000;2001.00000000000;2007.00000000000;1999.00000000000;2001.00000000000;1980.00000000000;1962.00000000000;1954.00000000000;1948.00000000000;1947.00000000000;1925.00000000000;1856.00000000000;1861.00000000000;1911.00000000000;1928.00000000000;1908.00000000000;1820.00000000000;1824.00000000000;1834.00000000000;1915.00000000000;1838.00000000000;1725.00000000000;1640.00000000000;1667.00000000000;1810.00000000000;1865.00000000000;1827.00000000000;1692.00000000000;1795.00000000000;1879.00000000000;1851.00000000000;1814.00000000000;1841.00000000000;1900.00000000000;1960.00000000000;1919.00000000000;1943.00000000000;1907.00000000000;1871.00000000000;1809.00000000000;1804.00000000000;1832.00000000000;1822.00000000000;1830.00000000000;1769.00000000000;1773.00000000000;1791.00000000000;1796.00000000000;1790.00000000000;1807.00000000000;1807.00000000000;1816.00000000000;1796.00000000000;1823.00000000000;1830.00000000000;1845.00000000000;1841.00000000000;1822.00000000000;1839.00000000000;1828.00000000000;1840.00000000000;1840.00000000000;1850.00000000000;1840.00000000000;1845.00000000000;1832.00000000000;1826.00000000000;1827.00000000000;1817.00000000000;1837.00000000000;1821.00000000000;1794.00000000000;1820.00000000000;1811.00000000000;1815.00000000000;1813.00000000000
