COMMAND 4 SAMPLE 1
Accel X : 2802.00000000000;2788.00000000000;2799.00000000000;2799.00000000000;2809.00000000000;2796.00000000000;2816.00000000000;2813.00000000000;2806.00000000000;2795.00000000000;2771.00000000000;2815.00000000000;2821.00000000000;2804.00000000000;2825.00000000000;2796.00000000000;2793.00000000000;2786.00000000000;2807.00000000000;2819.00000000000;2788.00000000000;2803.00000000000;2798.00000000000;2808.00000000000;2794.00000000000;2806.00000000000;2803.00000000000;2815.00000000000;2799.00000000000;2789.00000000000;2808.00000000000;2798.00000000000;2812.00000000000;2799.00000000000;2810.00000000000;2784.00000000000;2808.00000000000;2796.00000000000;2799.00000000000;2793.00000000000;2805.00000000000;2790.00000000000;2805.00000000000;2797.00000000000;2807.00000000000;2835.00000000000;2846.00000000000;2865.00000000000;2909.00000000000;2970.00000000000;3056.00000000000;3183.00000000000;3296.00000000000;3484.00000000000;3645.00000000000;3362.00000000000;3094.00000000000;2894.00000000000;2864.00000000000;2736.00000000000;2639.00000000000;2431.00000000000;2247.00000000000;2108.00000000000;2075.00000000000;2041.00000000000;1999.00000000000;1870.00000000000;1917.00000000000;1877.00000000000;1908.00000000000;1907.00000000000;1885.00000000000;1896.00000000000;1920.00000000000;1921.00000000000;1942.00000000000;1994.00000000000;1998.00000000000;2014.00000000000;2059.00000000000;2036.00000000000;2026.00000000000;2021.00000000000;1998.00000000000;1992.00000000000;1954.00000000000;1939.00000000000;1884.00000000000;1894.00000000000;1906.00000000000;1916.00000000000;1958.00000000000;1995.00000000000;2136.00000000000;2206.00000000000;2242.00000000000;2360.00000000000;2403.00000000000;2524.00000000000;2704.00000000000;2942.00000000000;3010.00000000000;3055.00000000000;3283.00000000000;3318.00000000000;3297.00000000000;3317.00000000000;3316.00000000000;3295.00000000000;3243.00000000000;3216.00000000000;3147.00000000000;3095.00000000000;3008.00000000000;2929.00000000000;2884.00000000000;2885.00000000000;2874.00000000000;2860.00000000000;2864.00000000000;2830.00000000000;2824.00000000000;2810.00000000000;2837.00000000000;2810.00000000000;2802.00000000000;2816.00000000000;2825.00000000000;2849.00000000000;2847.00000000000;2834.00000000000;2853.00000000000;2835.00000000000;2862.00000000000;2850.00000000000;2838.00000000000;2833.00000000000;2853.00000000000;2827.00000000000;2847.00000000000;2836.00000000000;2841.00000000000;2843.00000000000;2841.00000000000;2842.00000000000;2839.00000000000;2843.00000000000;2825.00000000000;2853.00000000000
Accel Y : 1873.00000000000;1867.00000000000;1870.00000000000;1869.00000000000;1857.00000000000;1869.00000000000;1865.00000000000;1871.00000000000;1863.00000000000;1872.00000000000;1870.00000000000;1867.00000000000;1872.00000000000;1879.00000000000;1872.00000000000;1867.00000000000;1878.00000000000;1869.00000000000;1860.00000000000;1875.00000000000;1892.00000000000;1870.00000000000;1866.00000000000;1859.00000000000;1881.00000000000;1853.00000000000;1863.00000000000;1873.00000000000;1870.00000000000;1875.00000000000;1867.00000000000;1861.00000000000;1855.00000000000;1863.00000000000;1863.00000000000;1874.00000000000;1864.00000000000;1863.00000000000;1871.00000000000;1870.00000000000;1859.00000000000;1861.00000000000;1863.00000000000;1875.00000000000;1876.00000000000;1849.00000000000;1814.00000000000;1782.00000000000;1715.00000000000;1645.00000000000;1582.00000000000;1564.00000000000;1517.00000000000;1509.00000000000;1580.00000000000;1683.00000000000;1761.00000000000;1761.00000000000;1781.00000000000;1841.00000000000;1879.00000000000;1896.00000000000;1818.00000000000;1805.00000000000;1777.00000000000;1758.00000000000;1709.00000000000;1649.00000000000;1596.00000000000;1560.00000000000;1521.00000000000;1471.00000000000;1434.00000000000;1394.00000000000;1366.00000000000;1331.00000000000;1298.00000000000;1278.00000000000;1282.00000000000;1268.00000000000;1241.00000000000;1262.00000000000;1270.00000000000;1283.00000000000;1302.00000000000;1348.00000000000;1397.00000000000;1428.00000000000;1495.00000000000;1554.00000000000;1610.00000000000;1643.00000000000;1655.00000000000;1608.00000000000;1645.00000000000;1678.00000000000;1724.00000000000;1747.00000000000;1695.00000000000;1695.00000000000;1678.00000000000;1711.00000000000;1640.00000000000;1615.00000000000;1638.00000000000;1646.00000000000;1659.00000000000;1707.00000000000;1710.00000000000;1757.00000000000;1759.00000000000;1789.00000000000;1807.00000000000;1821.00000000000;1840.00000000000;1848.00000000000;1905.00000000000;1919.00000000000;1930.00000000000;1938.00000000000;1935.00000000000;1948.00000000000;1934.00000000000;1947.00000000000;1931.00000000000;1945.00000000000;1938.00000000000;1923.00000000000;1922.00000000000;1931.00000000000;1915.00000000000;1926.00000000000;1924.00000000000;1882.00000000000;1913.00000000000;1913.00000000000;1931.00000000000;1933.00000000000;1936.00000000000;1935.00000000000;1960.00000000000;1934.00000000000;1943.00000000000;1960.00000000000;1933.00000000000;1937.00000000000;1917.00000000000;1932.00000000000;1947.00000000000;1937.00000000000
Accel Z : 2016.00000000000;2017.00000000000;2044.00000000000;2014.00000000000;2025.00000000000;2020.00000000000;2015.00000000000;2007.00000000000;2014.00000000000;2006.00000000000;2022.00000000000;2028.00000000000;2021.00000000000;2008.00000000000;2011.00000000000;2019.00000000000;2017.00000000000;2033.00000000000;2034.00000000000;2025.00000000000;2000.00000000000;2017.00000000000;1997.00000000000;2021.00000000000;2011.00000000000;2041.00000000000;2004.00000000000;2017.00000000000;2021.00000000000;2034.00000000000;2019.00000000000;2030.00000000000;2029.00000000000;2033.00000000000;2020.00000000000;2042.00000000000;2009.00000000000;2027.00000000000;2012.00000000000;2024.00000000000;1995.00000000000;2022.00000000000;2003.00000000000;2025.00000000000;2025.00000000000;2016.00000000000;2015.00000000000;2046.00000000000;2087.00000000000;2162.00000000000;2175.00000000000;2293.00000000000;2367.00000000000;2415.00000000000;2381.00000000000;2395.00000000000;2484.00000000000;2474.00000000000;2455.00000000000;2354.00000000000;2299.00000000000;2216.00000000000;2164.00000000000;2114.00000000000;2039.00000000000;1997.00000000000;1967.00000000000;1926.00000000000;1931.00000000000;1967.00000000000;1999.00000000000;2011.00000000000;2027.00000000000;2063.00000000000;2126.00000000000;2141.00000000000;2183.00000000000;2186.00000000000;2245.00000000000;2270.00000000000;2294.00000000000;2287.00000000000;2270.00000000000;2283.00000000000;2263.00000000000;2244.00000000000;2207.00000000000;2166.00000000000;2079.00000000000;2044.00000000000;2044.00000000000;2069.00000000000;2005.00000000000;1968.00000000000;1972.00000000000;2015.00000000000;2070.00000000000;2086.00000000000;1979.00000000000;1947.00000000000;1956.00000000000;2048.00000000000;1980.00000000000;1936.00000000000;2042.00000000000;2083.00000000000;2077.00000000000;2090.00000000000;2090.00000000000;2119.00000000000;2067.00000000000;2002.00000000000;2010.00000000000;1991.00000000000;1976.00000000000;1950.00000000000;1953.00000000000;1922.00000000000;1883.00000000000;1879.00000000000;1878.00000000000;1886.00000000000;1874.00000000000;1879.00000000000;1886.00000000000;1894.00000000000;1903.00000000000;1907.00000000000;1930.00000000000;1935.00000000000;1893.00000000000;1917.00000000000;1923.00000000000;1924.00000000000;1947.00000000000;1940.00000000000;1919.00000000000;1923.00000000000;1904.00000000000;1914.00000000000;1892.00000000000;1895.00000000000;1907.00000000000;1931.00000000000;1917.00000000000;1936.00000000000;1959.00000000000;1936.00000000000;1955.00000000000;1940.00000000000
Gyro X : 2802.00000000000;2788.00000000000;2799.00000000000;2799.00000000000;2809.00000000000;2796.00000000000;2816.00000000000;2813.00000000000;2806.00000000000;2795.00000000000;2771.00000000000;2815.00000000000;2821.00000000000;2804.00000000000;2825.00000000000;2796.00000000000;2793.00000000000;2786.00000000000;2807.00000000000;2819.00000000000;2788.00000000000;2803.00000000000;2798.00000000000;2808.00000000000;2794.00000000000;2806.00000000000;2803.00000000000;2815.00000000000;2799.00000000000;2789.00000000000;2808.00000000000;2798.00000000000;2812.00000000000;2799.00000000000;2810.00000000000;2784.00000000000;2808.00000000000;2796.00000000000;2799.00000000000;2793.00000000000;2805.00000000000;2790.00000000000;2805.00000000000;2797.00000000000;2807.00000000000;2835.00000000000;2846.00000000000;2865.00000000000;2909.00000000000;2970.00000000000;3056.00000000000;3183.00000000000;3296.00000000000;3484.00000000000;3645.00000000000;3362.00000000000;3094.00000000000;2894.00000000000;2864.00000000000;2736.00000000000;2639.00000000000;2431.00000000000;2247.00000000000;2108.00000000000;2075.00000000000;2041.00000000000;1999.00000000000;1870.00000000000;1917.00000000000;1877.00000000000;1908.00000000000;1907.00000000000;1885.00000000000;1896.00000000000;1920.00000000000;1921.00000000000;1942.00000000000;1994.00000000000;1998.00000000000;2014.00000000000;2059.00000000000;2036.00000000000;2026.00000000000;2021.00000000000;1998.00000000000;1992.00000000000;1954.00000000000;1939.00000000000;1884.00000000000;1894.00000000000;1906.00000000000;1916.00000000000;1958.00000000000;1995.00000000000;2136.00000000000;2206.00000000000;2242.00000000000;2360.00000000000;2403.00000000000;2524.00000000000;2704.00000000000;2942.00000000000;3010.00000000000;3055.00000000000;3283.00000000000;3318.00000000000;3297.00000000000;3317.00000000000;3316.00000000000;3295.00000000000;3243.00000000000;3216.00000000000;3147.00000000000;3095.00000000000;3008.00000000000;2929.00000000000;2884.00000000000;2885.00000000000;2874.00000000000;2860.00000000000;2864.00000000000;2830.00000000000;2824.00000000000;2810.00000000000;2837.00000000000;2810.00000000000;2802.00000000000;2816.00000000000;2825.00000000000;2849.00000000000;2847.00000000000;2834.00000000000;2853.00000000000;2835.00000000000;2862.00000000000;2850.00000000000;2838.00000000000;2833.00000000000;2853.00000000000;2827.00000000000;2847.00000000000;2836.00000000000;2841.00000000000;2843.00000000000;2841.00000000000;2842.00000000000;2839.00000000000;2843.00000000000;2825.00000000000;2853.00000000000
Gyro Y : 1873.00000000000;1867.00000000000;1870.00000000000;1869.00000000000;1857.00000000000;1869.00000000000;1865.00000000000;1871.00000000000;1863.00000000000;1872.00000000000;1870.00000000000;1867.00000000000;1872.00000000000;1879.00000000000;1872.00000000000;1867.00000000000;1878.00000000000;1869.00000000000;1860.00000000000;1875.00000000000;1892.00000000000;1870.00000000000;1866.00000000000;1859.00000000000;1881.00000000000;1853.00000000000;1863.00000000000;1873.00000000000;1870.00000000000;1875.00000000000;1867.00000000000;1861.00000000000;1855.00000000000;1863.00000000000;1863.00000000000;1874.00000000000;1864.00000000000;1863.00000000000;1871.00000000000;1870.00000000000;1859.00000000000;1861.00000000000;1863.00000000000;1875.00000000000;1876.00000000000;1849.00000000000;1814.00000000000;1782.00000000000;1715.00000000000;1645.00000000000;1582.00000000000;1564.00000000000;1517.00000000000;1509.00000000000;1580.00000000000;1683.00000000000;1761.00000000000;1761.00000000000;1781.00000000000;1841.00000000000;1879.00000000000;1896.00000000000;1818.00000000000;1805.00000000000;1777.00000000000;1758.00000000000;1709.00000000000;1649.00000000000;1596.00000000000;1560.00000000000;1521.00000000000;1471.00000000000;1434.00000000000;1394.00000000000;1366.00000000000;1331.00000000000;1298.00000000000;1278.00000000000;1282.00000000000;1268.00000000000;1241.00000000000;1262.00000000000;1270.00000000000;1283.00000000000;1302.00000000000;1348.00000000000;1397.00000000000;1428.00000000000;1495.00000000000;1554.00000000000;1610.00000000000;1643.00000000000;1655.00000000000;1608.00000000000;1645.00000000000;1678.00000000000;1724.00000000000;1747.00000000000;1695.00000000000;1695.00000000000;1678.00000000000;1711.00000000000;1640.00000000000;1615.00000000000;1638.00000000000;1646.00000000000;1659.00000000000;1707.00000000000;1710.00000000000;1757.00000000000;1759.00000000000;1789.00000000000;1807.00000000000;1821.00000000000;1840.00000000000;1848.00000000000;1905.00000000000;1919.00000000000;1930.00000000000;1938.00000000000;1935.00000000000;1948.00000000000;1934.00000000000;1947.00000000000;1931.00000000000;1945.00000000000;1938.00000000000;1923.00000000000;1922.00000000000;1931.00000000000;1915.00000000000;1926.00000000000;1924.00000000000;1882.00000000000;1913.00000000000;1913.00000000000;1931.00000000000;1933.00000000000;1936.00000000000;1935.00000000000;1960.00000000000;1934.00000000000;1943.00000000000;1960.00000000000;1933.00000000000;1937.00000000000;1917.00000000000;1932.00000000000;1947.00000000000;1937.00000000000
Gyro Z : 2016.00000000000;2017.00000000000;2044.00000000000;2014.00000000000;2025.00000000000;2020.00000000000;2015.00000000000;2007.00000000000;2014.00000000000;2006.00000000000;2022.00000000000;2028.00000000000;2021.00000000000;2008.00000000000;2011.00000000000;2019.00000000000;2017.00000000000;2033.00000000000;2034.00000000000;2025.00000000000;2000.00000000000;2017.00000000000;1997.00000000000;2021.00000000000;2011.00000000000;2041.00000000000;2004.00000000000;2017.00000000000;2021.00000000000;2034.00000000000;2019.00000000000;2030.00000000000;2029.00000000000;2033.00000000000;2020.00000000000;2042.00000000000;2009.00000000000;2027.00000000000;2012.00000000000;2024.00000000000;1995.00000000000;2022.00000000000;2003.00000000000;2025.00000000000;2025.00000000000;2016.00000000000;2015.00000000000;2046.00000000000;2087.00000000000;2162.00000000000;2175.00000000000;2293.00000000000;2367.00000000000;2415.00000000000;2381.00000000000;2395.00000000000;2484.00000000000;2474.00000000000;2455.00000000000;2354.00000000000;2299.00000000000;2216.00000000000;2164.00000000000;2114.00000000000;2039.00000000000;1997.00000000000;1967.00000000000;1926.00000000000;1931.00000000000;1967.00000000000;1999.00000000000;2011.00000000000;2027.00000000000;2063.00000000000;2126.00000000000;2141.00000000000;2183.00000000000;2186.00000000000;2245.00000000000;2270.00000000000;2294.00000000000;2287.00000000000;2270.00000000000;2283.00000000000;2263.00000000000;2244.00000000000;2207.00000000000;2166.00000000000;2079.00000000000;2044.00000000000;2044.00000000000;2069.00000000000;2005.00000000000;1968.00000000000;1972.00000000000;2015.00000000000;2070.00000000000;2086.00000000000;1979.00000000000;1947.00000000000;1956.00000000000;2048.00000000000;1980.00000000000;1936.00000000000;2042.00000000000;2083.00000000000;2077.00000000000;2090.00000000000;2090.00000000000;2119.00000000000;2067.00000000000;2002.00000000000;2010.00000000000;1991.00000000000;1976.00000000000;1950.00000000000;1953.00000000000;1922.00000000000;1883.00000000000;1879.00000000000;1878.00000000000;1886.00000000000;1874.00000000000;1879.00000000000;1886.00000000000;1894.00000000000;1903.00000000000;1907.00000000000;1930.00000000000;1935.00000000000;1893.00000000000;1917.00000000000;1923.00000000000;1924.00000000000;1947.00000000000;1940.00000000000;1919.00000000000;1923.00000000000;1904.00000000000;1914.00000000000;1892.00000000000;1895.00000000000;1907.00000000000;1931.00000000000;1917.00000000000;1936.00000000000;1959.00000000000;1936.00000000000;1955.00000000000;1940.00000000000
