COMMAND 4 SAMPLE 1
Accel X : 2844.00000000000;2852.00000000000;2867.00000000000;2853.00000000000;2857.00000000000;2869.00000000000;2837.00000000000;2844.00000000000;2860.00000000000;2856.00000000000;2854.00000000000;2871.00000000000;2848.00000000000;2856.00000000000;2871.00000000000;2869.00000000000;2862.00000000000;2842.00000000000;2862.00000000000;2874.00000000000;2862.00000000000;2870.00000000000;2859.00000000000;2848.00000000000;2858.00000000000;2854.00000000000;2853.00000000000;2863.00000000000;2848.00000000000;2867.00000000000;2853.00000000000;2844.00000000000;2850.00000000000;2861.00000000000;2830.00000000000;2853.00000000000;2855.00000000000;2865.00000000000;2858.00000000000;2881.00000000000;2871.00000000000;2862.00000000000;2885.00000000000;2913.00000000000;2956.00000000000;3002.00000000000;3028.00000000000;3125.00000000000;3220.00000000000;3458.00000000000;3570.00000000000;3554.00000000000;3491.00000000000;3476.00000000000;3401.00000000000;3291.00000000000;3050.00000000000;2784.00000000000;2625.00000000000;2434.00000000000;2287.00000000000;2093.00000000000;1964.00000000000;1938.00000000000;1864.00000000000;1740.00000000000;1773.00000000000;1744.00000000000;1764.00000000000;1791.00000000000;1752.00000000000;1781.00000000000;1797.00000000000;1840.00000000000;1836.00000000000;1829.00000000000;1822.00000000000;1847.00000000000;1857.00000000000;1885.00000000000;1868.00000000000;1854.00000000000;1844.00000000000;1858.00000000000;1844.00000000000;1868.00000000000;1897.00000000000;1888.00000000000;1883.00000000000;1884.00000000000;1947.00000000000;2008.00000000000;2078.00000000000;2128.00000000000;2221.00000000000;2395.00000000000;2605.00000000000;2897.00000000000;3125.00000000000;3262.00000000000;3365.00000000000;3434.00000000000;3264.00000000000;3242.00000000000;3278.00000000000;3327.00000000000;3310.00000000000;3354.00000000000;3284.00000000000;3162.00000000000;3098.00000000000;3028.00000000000;3009.00000000000;3011.00000000000;2990.00000000000;2970.00000000000;2920.00000000000;2884.00000000000;2883.00000000000;2845.00000000000;2832.00000000000;2847.00000000000;2826.00000000000;2826.00000000000;2831.00000000000;2830.00000000000;2823.00000000000;2851.00000000000;2829.00000000000;2829.00000000000;2862.00000000000;2878.00000000000;2884.00000000000;2881.00000000000;2890.00000000000;2883.00000000000;2871.00000000000;2874.00000000000;2888.00000000000;2873.00000000000;2864.00000000000;2870.00000000000;2875.00000000000;2890.00000000000;2846.00000000000;2866.00000000000;2845.00000000000;2852.00000000000;2857.00000000000;2867.00000000000
Accel Y : 1998.00000000000;2002.00000000000;1997.00000000000;2019.00000000000;2001.00000000000;1984.00000000000;1991.00000000000;1991.00000000000;2008.00000000000;2008.00000000000;2000.00000000000;1975.00000000000;2013.00000000000;2015.00000000000;1985.00000000000;2003.00000000000;1995.00000000000;2011.00000000000;2015.00000000000;1967.00000000000;2020.00000000000;1985.00000000000;2000.00000000000;1998.00000000000;1997.00000000000;1985.00000000000;1995.00000000000;1979.00000000000;2015.00000000000;2004.00000000000;2008.00000000000;1996.00000000000;2009.00000000000;1985.00000000000;2011.00000000000;2007.00000000000;1993.00000000000;2004.00000000000;1991.00000000000;1984.00000000000;1989.00000000000;1978.00000000000;1951.00000000000;1937.00000000000;1907.00000000000;1853.00000000000;1799.00000000000;1736.00000000000;1703.00000000000;1638.00000000000;1637.00000000000;1766.00000000000;1818.00000000000;1849.00000000000;1891.00000000000;2000.00000000000;2026.00000000000;2007.00000000000;1995.00000000000;1965.00000000000;1914.00000000000;1867.00000000000;1833.00000000000;1800.00000000000;1757.00000000000;1720.00000000000;1646.00000000000;1568.00000000000;1513.00000000000;1543.00000000000;1458.00000000000;1403.00000000000;1405.00000000000;1389.00000000000;1335.00000000000;1297.00000000000;1291.00000000000;1281.00000000000;1247.00000000000;1285.00000000000;1341.00000000000;1336.00000000000;1358.00000000000;1395.00000000000;1438.00000000000;1452.00000000000;1500.00000000000;1556.00000000000;1596.00000000000;1578.00000000000;1607.00000000000;1682.00000000000;1757.00000000000;1663.00000000000;1683.00000000000;1806.00000000000;1907.00000000000;1906.00000000000;1771.00000000000;1697.00000000000;1757.00000000000;1756.00000000000;1763.00000000000;1732.00000000000;1756.00000000000;1768.00000000000;1756.00000000000;1751.00000000000;1751.00000000000;1747.00000000000;1791.00000000000;1804.00000000000;1822.00000000000;1867.00000000000;1906.00000000000;1944.00000000000;1931.00000000000;1951.00000000000;1959.00000000000;1956.00000000000;1957.00000000000;1992.00000000000;1951.00000000000;1970.00000000000;1967.00000000000;1947.00000000000;1966.00000000000;1963.00000000000;1918.00000000000;1926.00000000000;1926.00000000000;1943.00000000000;1930.00000000000;1935.00000000000;1929.00000000000;1908.00000000000;1913.00000000000;1912.00000000000;1912.00000000000;1937.00000000000;1952.00000000000;1946.00000000000;1943.00000000000;1957.00000000000;1922.00000000000;1939.00000000000;1951.00000000000;1949.00000000000;1939.00000000000;1936.00000000000
Accel Z : 1906.00000000000;1900.00000000000;1894.00000000000;1893.00000000000;1883.00000000000;1905.00000000000;1920.00000000000;1910.00000000000;1915.00000000000;1903.00000000000;1882.00000000000;1905.00000000000;1890.00000000000;1898.00000000000;1916.00000000000;1894.00000000000;1905.00000000000;1895.00000000000;1879.00000000000;1898.00000000000;1896.00000000000;1901.00000000000;1902.00000000000;1890.00000000000;1890.00000000000;1911.00000000000;1886.00000000000;1898.00000000000;1894.00000000000;1892.00000000000;1884.00000000000;1902.00000000000;1882.00000000000;1885.00000000000;1899.00000000000;1883.00000000000;1896.00000000000;1889.00000000000;1896.00000000000;1907.00000000000;1873.00000000000;1894.00000000000;1899.00000000000;1930.00000000000;1927.00000000000;1939.00000000000;2017.00000000000;2101.00000000000;2121.00000000000;2131.00000000000;2224.00000000000;2253.00000000000;2288.00000000000;2339.00000000000;2409.00000000000;2446.00000000000;2372.00000000000;2337.00000000000;2250.00000000000;2153.00000000000;2124.00000000000;2003.00000000000;1970.00000000000;1978.00000000000;1928.00000000000;1890.00000000000;1891.00000000000;1879.00000000000;1936.00000000000;1979.00000000000;1976.00000000000;2033.00000000000;2073.00000000000;2151.00000000000;2148.00000000000;2140.00000000000;2179.00000000000;2216.00000000000;2212.00000000000;2261.00000000000;2254.00000000000;2244.00000000000;2244.00000000000;2260.00000000000;2250.00000000000;2257.00000000000;2216.00000000000;2165.00000000000;2074.00000000000;2057.00000000000;2036.00000000000;2022.00000000000;1989.00000000000;1954.00000000000;1962.00000000000;1939.00000000000;1907.00000000000;1811.00000000000;1743.00000000000;1678.00000000000;1715.00000000000;1813.00000000000;1880.00000000000;1894.00000000000;1924.00000000000;1849.00000000000;1863.00000000000;1863.00000000000;1841.00000000000;1834.00000000000;1872.00000000000;1869.00000000000;1844.00000000000;1820.00000000000;1811.00000000000;1825.00000000000;1788.00000000000;1779.00000000000;1751.00000000000;1741.00000000000;1751.00000000000;1726.00000000000;1727.00000000000;1746.00000000000;1773.00000000000;1751.00000000000;1756.00000000000;1786.00000000000;1769.00000000000;1781.00000000000;1769.00000000000;1774.00000000000;1783.00000000000;1778.00000000000;1785.00000000000;1771.00000000000;1804.00000000000;1805.00000000000;1806.00000000000;1788.00000000000;1762.00000000000;1778.00000000000;1804.00000000000;1789.00000000000;1784.00000000000;1786.00000000000;1771.00000000000;1791.00000000000;1774.00000000000;1781.00000000000
Gyro X : 2844.00000000000;2852.00000000000;2867.00000000000;2853.00000000000;2857.00000000000;2869.00000000000;2837.00000000000;2844.00000000000;2860.00000000000;2856.00000000000;2854.00000000000;2871.00000000000;2848.00000000000;2856.00000000000;2871.00000000000;2869.00000000000;2862.00000000000;2842.00000000000;2862.00000000000;2874.00000000000;2862.00000000000;2870.00000000000;2859.00000000000;2848.00000000000;2858.00000000000;2854.00000000000;2853.00000000000;2863.00000000000;2848.00000000000;2867.00000000000;2853.00000000000;2844.00000000000;2850.00000000000;2861.00000000000;2830.00000000000;2853.00000000000;2855.00000000000;2865.00000000000;2858.00000000000;2881.00000000000;2871.00000000000;2862.00000000000;2885.00000000000;2913.00000000000;2956.00000000000;3002.00000000000;3028.00000000000;3125.00000000000;3220.00000000000;3458.00000000000;3570.00000000000;3554.00000000000;3491.00000000000;3476.00000000000;3401.00000000000;3291.00000000000;3050.00000000000;2784.00000000000;2625.00000000000;2434.00000000000;2287.00000000000;2093.00000000000;1964.00000000000;1938.00000000000;1864.00000000000;1740.00000000000;1773.00000000000;1744.00000000000;1764.00000000000;1791.00000000000;1752.00000000000;1781.00000000000;1797.00000000000;1840.00000000000;1836.00000000000;1829.00000000000;1822.00000000000;1847.00000000000;1857.00000000000;1885.00000000000;1868.00000000000;1854.00000000000;1844.00000000000;1858.00000000000;1844.00000000000;1868.00000000000;1897.00000000000;1888.00000000000;1883.00000000000;1884.00000000000;1947.00000000000;2008.00000000000;2078.00000000000;2128.00000000000;2221.00000000000;2395.00000000000;2605.00000000000;2897.00000000000;3125.00000000000;3262.00000000000;3365.00000000000;3434.00000000000;3264.00000000000;3242.00000000000;3278.00000000000;3327.00000000000;3310.00000000000;3354.00000000000;3284.00000000000;3162.00000000000;3098.00000000000;3028.00000000000;3009.00000000000;3011.00000000000;2990.00000000000;2970.00000000000;2920.00000000000;2884.00000000000;2883.00000000000;2845.00000000000;2832.00000000000;2847.00000000000;2826.00000000000;2826.00000000000;2831.00000000000;2830.00000000000;2823.00000000000;2851.00000000000;2829.00000000000;2829.00000000000;2862.00000000000;2878.00000000000;2884.00000000000;2881.00000000000;2890.00000000000;2883.00000000000;2871.00000000000;2874.00000000000;2888.00000000000;2873.00000000000;2864.00000000000;2870.00000000000;2875.00000000000;2890.00000000000;2846.00000000000;2866.00000000000;2845.00000000000;2852.00000000000;2857.00000000000;2867.00000000000
Gyro Y : 1998.00000000000;2002.00000000000;1997.00000000000;2019.00000000000;2001.00000000000;1984.00000000000;1991.00000000000;1991.00000000000;2008.00000000000;2008.00000000000;2000.00000000000;1975.00000000000;2013.00000000000;2015.00000000000;1985.00000000000;2003.00000000000;1995.00000000000;2011.00000000000;2015.00000000000;1967.00000000000;2020.00000000000;1985.00000000000;2000.00000000000;1998.00000000000;1997.00000000000;1985.00000000000;1995.00000000000;1979.00000000000;2015.00000000000;2004.00000000000;2008.00000000000;1996.00000000000;2009.00000000000;1985.00000000000;2011.00000000000;2007.00000000000;1993.00000000000;2004.00000000000;1991.00000000000;1984.00000000000;1989.00000000000;1978.00000000000;1951.00000000000;1937.00000000000;1907.00000000000;1853.00000000000;1799.00000000000;1736.00000000000;1703.00000000000;1638.00000000000;1637.00000000000;1766.00000000000;1818.00000000000;1849.00000000000;1891.00000000000;2000.00000000000;2026.00000000000;2007.00000000000;1995.00000000000;1965.00000000000;1914.00000000000;1867.00000000000;1833.00000000000;1800.00000000000;1757.00000000000;1720.00000000000;1646.00000000000;1568.00000000000;1513.00000000000;1543.00000000000;1458.00000000000;1403.00000000000;1405.00000000000;1389.00000000000;1335.00000000000;1297.00000000000;1291.00000000000;1281.00000000000;1247.00000000000;1285.00000000000;1341.00000000000;1336.00000000000;1358.00000000000;1395.00000000000;1438.00000000000;1452.00000000000;1500.00000000000;1556.00000000000;1596.00000000000;1578.00000000000;1607.00000000000;1682.00000000000;1757.00000000000;1663.00000000000;1683.00000000000;1806.00000000000;1907.00000000000;1906.00000000000;1771.00000000000;1697.00000000000;1757.00000000000;1756.00000000000;1763.00000000000;1732.00000000000;1756.00000000000;1768.00000000000;1756.00000000000;1751.00000000000;1751.00000000000;1747.00000000000;1791.00000000000;1804.00000000000;1822.00000000000;1867.00000000000;1906.00000000000;1944.00000000000;1931.00000000000;1951.00000000000;1959.00000000000;1956.00000000000;1957.00000000000;1992.00000000000;1951.00000000000;1970.00000000000;1967.00000000000;1947.00000000000;1966.00000000000;1963.00000000000;1918.00000000000;1926.00000000000;1926.00000000000;1943.00000000000;1930.00000000000;1935.00000000000;1929.00000000000;1908.00000000000;1913.00000000000;1912.00000000000;1912.00000000000;1937.00000000000;1952.00000000000;1946.00000000000;1943.00000000000;1957.00000000000;1922.00000000000;1939.00000000000;1951.00000000000;1949.00000000000;1939.00000000000;1936.00000000000
Gyro Z : 1906.00000000000;1900.00000000000;1894.00000000000;1893.00000000000;1883.00000000000;1905.00000000000;1920.00000000000;1910.00000000000;1915.00000000000;1903.00000000000;1882.00000000000;1905.00000000000;1890.00000000000;1898.00000000000;1916.00000000000;1894.00000000000;1905.00000000000;1895.00000000000;1879.00000000000;1898.00000000000;1896.00000000000;1901.00000000000;1902.00000000000;1890.00000000000;1890.00000000000;1911.00000000000;1886.00000000000;1898.00000000000;1894.00000000000;1892.00000000000;1884.00000000000;1902.00000000000;1882.00000000000;1885.00000000000;1899.00000000000;1883.00000000000;1896.00000000000;1889.00000000000;1896.00000000000;1907.00000000000;1873.00000000000;1894.00000000000;1899.00000000000;1930.00000000000;1927.00000000000;1939.00000000000;2017.00000000000;2101.00000000000;2121.00000000000;2131.00000000000;2224.00000000000;2253.00000000000;2288.00000000000;2339.00000000000;2409.00000000000;2446.00000000000;2372.00000000000;2337.00000000000;2250.00000000000;2153.00000000000;2124.00000000000;2003.00000000000;1970.00000000000;1978.00000000000;1928.00000000000;1890.00000000000;1891.00000000000;1879.00000000000;1936.00000000000;1979.00000000000;1976.00000000000;2033.00000000000;2073.00000000000;2151.00000000000;2148.00000000000;2140.00000000000;2179.00000000000;2216.00000000000;2212.00000000000;2261.00000000000;2254.00000000000;2244.00000000000;2244.00000000000;2260.00000000000;2250.00000000000;2257.00000000000;2216.00000000000;2165.00000000000;2074.00000000000;2057.00000000000;2036.00000000000;2022.00000000000;1989.00000000000;1954.00000000000;1962.00000000000;1939.00000000000;1907.00000000000;1811.00000000000;1743.00000000000;1678.00000000000;1715.00000000000;1813.00000000000;1880.00000000000;1894.00000000000;1924.00000000000;1849.00000000000;1863.00000000000;1863.00000000000;1841.00000000000;1834.00000000000;1872.00000000000;1869.00000000000;1844.00000000000;1820.00000000000;1811.00000000000;1825.00000000000;1788.00000000000;1779.00000000000;1751.00000000000;1741.00000000000;1751.00000000000;1726.00000000000;1727.00000000000;1746.00000000000;1773.00000000000;1751.00000000000;1756.00000000000;1786.00000000000;1769.00000000000;1781.00000000000;1769.00000000000;1774.00000000000;1783.00000000000;1778.00000000000;1785.00000000000;1771.00000000000;1804.00000000000;1805.00000000000;1806.00000000000;1788.00000000000;1762.00000000000;1778.00000000000;1804.00000000000;1789.00000000000;1784.00000000000;1786.00000000000;1771.00000000000;1791.00000000000;1774.00000000000;1781.00000000000
