COMMAND 1 SAMPLE 1
Accel X : 2814.00000000000;2820.00000000000;2823.00000000000;2820.00000000000;2818.00000000000;2812.00000000000;2839.00000000000;2798.00000000000;2817.00000000000;2819.00000000000;2815.00000000000;2795.00000000000;2809.00000000000;2820.00000000000;2824.00000000000;2836.00000000000;2834.00000000000;2807.00000000000;2799.00000000000;2814.00000000000;2794.00000000000;2827.00000000000;2823.00000000000;2814.00000000000;2804.00000000000;2802.00000000000;2811.00000000000;2816.00000000000;2825.00000000000;2798.00000000000;2819.00000000000;2815.00000000000;2800.00000000000;2817.00000000000;2801.00000000000;2804.00000000000;2815.00000000000;2801.00000000000;2825.00000000000;2847.00000000000;2819.00000000000;2819.00000000000;2786.00000000000;2778.00000000000;2787.00000000000;2809.00000000000;2837.00000000000;2854.00000000000;2843.00000000000;2824.00000000000;2805.00000000000;2814.00000000000;2882.00000000000;3021.00000000000;2964.00000000000;2937.00000000000;2967.00000000000;2982.00000000000;2895.00000000000;2976.00000000000;3015.00000000000;2826.00000000000;2784.00000000000;2750.00000000000;2606.00000000000;2503.00000000000;2536.00000000000;2588.00000000000;2565.00000000000;2557.00000000000;2623.00000000000;2622.00000000000;2622.00000000000;2638.00000000000;2653.00000000000;2606.00000000000;2698.00000000000;2765.00000000000;2837.00000000000;2812.00000000000;2793.00000000000;2766.00000000000;2936.00000000000;3000.00000000000;2843.00000000000;2816.00000000000;2798.00000000000;2886.00000000000;3015.00000000000;2957.00000000000;2823.00000000000;2766.00000000000;2743.00000000000;2747.00000000000;2752.00000000000;2725.00000000000;2721.00000000000;2735.00000000000;2730.00000000000;2767.00000000000;2834.00000000000;2874.00000000000;2918.00000000000;2893.00000000000;2859.00000000000;2876.00000000000;2890.00000000000;2922.00000000000;2874.00000000000;2843.00000000000;2810.00000000000;2788.00000000000;2775.00000000000;2807.00000000000;2802.00000000000;2811.00000000000;2762.00000000000;2778.00000000000;2821.00000000000;2839.00000000000;2833.00000000000;2831.00000000000;2819.00000000000;2832.00000000000;2842.00000000000;2837.00000000000;2829.00000000000;2829.00000000000;2808.00000000000;2797.00000000000;2839.00000000000;2827.00000000000;2811.00000000000;2799.00000000000;2798.00000000000;2826.00000000000;2821.00000000000;2814.00000000000;2811.00000000000;2817.00000000000;2849.00000000000;2848.00000000000;2824.00000000000;2859.00000000000;2837.00000000000;2821.00000000000;2845.00000000000;2842.00000000000;2853.00000000000;2841.00000000000
Accel Y : 1821.00000000000;1816.00000000000;1827.00000000000;1831.00000000000;1809.00000000000;1829.00000000000;1827.00000000000;1841.00000000000;1820.00000000000;1817.00000000000;1826.00000000000;1822.00000000000;1796.00000000000;1797.00000000000;1811.00000000000;1817.00000000000;1819.00000000000;1830.00000000000;1811.00000000000;1808.00000000000;1825.00000000000;1808.00000000000;1809.00000000000;1821.00000000000;1817.00000000000;1821.00000000000;1833.00000000000;1819.00000000000;1811.00000000000;1820.00000000000;1830.00000000000;1849.00000000000;1844.00000000000;1813.00000000000;1812.00000000000;1820.00000000000;1833.00000000000;1780.00000000000;1790.00000000000;1790.00000000000;1762.00000000000;1723.00000000000;1707.00000000000;1636.00000000000;1542.00000000000;1472.00000000000;1398.00000000000;1327.00000000000;1257.00000000000;1225.00000000000;1204.00000000000;1197.00000000000;1252.00000000000;1273.00000000000;1384.00000000000;1511.00000000000;1622.00000000000;1840.00000000000;2153.00000000000;2439.00000000000;2660.00000000000;2707.00000000000;2811.00000000000;2860.00000000000;2758.00000000000;2662.00000000000;2550.00000000000;2499.00000000000;2426.00000000000;2412.00000000000;2441.00000000000;2455.00000000000;2444.00000000000;2379.00000000000;2419.00000000000;2455.00000000000;2392.00000000000;2293.00000000000;2231.00000000000;2279.00000000000;2342.00000000000;2034.00000000000;2001.00000000000;2017.00000000000;2035.00000000000;1923.00000000000;1804.00000000000;1753.00000000000;1732.00000000000;1761.00000000000;1783.00000000000;1685.00000000000;1597.00000000000;1551.00000000000;1522.00000000000;1465.00000000000;1443.00000000000;1416.00000000000;1414.00000000000;1449.00000000000;1489.00000000000;1510.00000000000;1563.00000000000;1559.00000000000;1616.00000000000;1701.00000000000;1757.00000000000;1779.00000000000;1809.00000000000;1787.00000000000;1819.00000000000;1830.00000000000;1854.00000000000;1843.00000000000;1817.00000000000;1863.00000000000;1845.00000000000;1832.00000000000;1820.00000000000;1822.00000000000;1804.00000000000;1802.00000000000;1803.00000000000;1780.00000000000;1815.00000000000;1804.00000000000;1807.00000000000;1810.00000000000;1810.00000000000;1828.00000000000;1823.00000000000;1827.00000000000;1846.00000000000;1834.00000000000;1850.00000000000;1841.00000000000;1842.00000000000;1854.00000000000;1839.00000000000;1817.00000000000;1815.00000000000;1814.00000000000;1830.00000000000;1836.00000000000;1833.00000000000;1823.00000000000;1818.00000000000;1830.00000000000;1829.00000000000;1836.00000000000
Accel Z : 1909.00000000000;1935.00000000000;1936.00000000000;1913.00000000000;1912.00000000000;1918.00000000000;1902.00000000000;1944.00000000000;1920.00000000000;1902.00000000000;1923.00000000000;1911.00000000000;1916.00000000000;1907.00000000000;1915.00000000000;1896.00000000000;1919.00000000000;1907.00000000000;1902.00000000000;1899.00000000000;1905.00000000000;1916.00000000000;1915.00000000000;1911.00000000000;1920.00000000000;1922.00000000000;1906.00000000000;1906.00000000000;1912.00000000000;1896.00000000000;1919.00000000000;1931.00000000000;1901.00000000000;1900.00000000000;1888.00000000000;1909.00000000000;1905.00000000000;1894.00000000000;1894.00000000000;1886.00000000000;1897.00000000000;1898.00000000000;1909.00000000000;1921.00000000000;1952.00000000000;1958.00000000000;2027.00000000000;2049.00000000000;2086.00000000000;2141.00000000000;2095.00000000000;2102.00000000000;2083.00000000000;1995.00000000000;1976.00000000000;1924.00000000000;1830.00000000000;1743.00000000000;1771.00000000000;1902.00000000000;1884.00000000000;1810.00000000000;1887.00000000000;1915.00000000000;1857.00000000000;1831.00000000000;1882.00000000000;1953.00000000000;1960.00000000000;1979.00000000000;1951.00000000000;1922.00000000000;1933.00000000000;1975.00000000000;1978.00000000000;1959.00000000000;1942.00000000000;1890.00000000000;1885.00000000000;1895.00000000000;1943.00000000000;1902.00000000000;1833.00000000000;1936.00000000000;1972.00000000000;1952.00000000000;1862.00000000000;1811.00000000000;1838.00000000000;1846.00000000000;1865.00000000000;1893.00000000000;1980.00000000000;1945.00000000000;1902.00000000000;2017.00000000000;2027.00000000000;2027.00000000000;1957.00000000000;1985.00000000000;2016.00000000000;2070.00000000000;2037.00000000000;2014.00000000000;1950.00000000000;1951.00000000000;1931.00000000000;1919.00000000000;1880.00000000000;1859.00000000000;1889.00000000000;1892.00000000000;1879.00000000000;1882.00000000000;1895.00000000000;1905.00000000000;1894.00000000000;1915.00000000000;1921.00000000000;1927.00000000000;1920.00000000000;1916.00000000000;1925.00000000000;1933.00000000000;1915.00000000000;1924.00000000000;1898.00000000000;1916.00000000000;1898.00000000000;1908.00000000000;1942.00000000000;1907.00000000000;1927.00000000000;1922.00000000000;1921.00000000000;1917.00000000000;1906.00000000000;1933.00000000000;1915.00000000000;1910.00000000000;1909.00000000000;1911.00000000000;1917.00000000000;1923.00000000000;1899.00000000000;1930.00000000000;1914.00000000000;1900.00000000000;1923.00000000000;1906.00000000000
Gyro X : 2814.00000000000;2820.00000000000;2823.00000000000;2820.00000000000;2818.00000000000;2812.00000000000;2839.00000000000;2798.00000000000;2817.00000000000;2819.00000000000;2815.00000000000;2795.00000000000;2809.00000000000;2820.00000000000;2824.00000000000;2836.00000000000;2834.00000000000;2807.00000000000;2799.00000000000;2814.00000000000;2794.00000000000;2827.00000000000;2823.00000000000;2814.00000000000;2804.00000000000;2802.00000000000;2811.00000000000;2816.00000000000;2825.00000000000;2798.00000000000;2819.00000000000;2815.00000000000;2800.00000000000;2817.00000000000;2801.00000000000;2804.00000000000;2815.00000000000;2801.00000000000;2825.00000000000;2847.00000000000;2819.00000000000;2819.00000000000;2786.00000000000;2778.00000000000;2787.00000000000;2809.00000000000;2837.00000000000;2854.00000000000;2843.00000000000;2824.00000000000;2805.00000000000;2814.00000000000;2882.00000000000;3021.00000000000;2964.00000000000;2937.00000000000;2967.00000000000;2982.00000000000;2895.00000000000;2976.00000000000;3015.00000000000;2826.00000000000;2784.00000000000;2750.00000000000;2606.00000000000;2503.00000000000;2536.00000000000;2588.00000000000;2565.00000000000;2557.00000000000;2623.00000000000;2622.00000000000;2622.00000000000;2638.00000000000;2653.00000000000;2606.00000000000;2698.00000000000;2765.00000000000;2837.00000000000;2812.00000000000;2793.00000000000;2766.00000000000;2936.00000000000;3000.00000000000;2843.00000000000;2816.00000000000;2798.00000000000;2886.00000000000;3015.00000000000;2957.00000000000;2823.00000000000;2766.00000000000;2743.00000000000;2747.00000000000;2752.00000000000;2725.00000000000;2721.00000000000;2735.00000000000;2730.00000000000;2767.00000000000;2834.00000000000;2874.00000000000;2918.00000000000;2893.00000000000;2859.00000000000;2876.00000000000;2890.00000000000;2922.00000000000;2874.00000000000;2843.00000000000;2810.00000000000;2788.00000000000;2775.00000000000;2807.00000000000;2802.00000000000;2811.00000000000;2762.00000000000;2778.00000000000;2821.00000000000;2839.00000000000;2833.00000000000;2831.00000000000;2819.00000000000;2832.00000000000;2842.00000000000;2837.00000000000;2829.00000000000;2829.00000000000;2808.00000000000;2797.00000000000;2839.00000000000;2827.00000000000;2811.00000000000;2799.00000000000;2798.00000000000;2826.00000000000;2821.00000000000;2814.00000000000;2811.00000000000;2817.00000000000;2849.00000000000;2848.00000000000;2824.00000000000;2859.00000000000;2837.00000000000;2821.00000000000;2845.00000000000;2842.00000000000;2853.00000000000;2841.00000000000
Gyro Y : 1821.00000000000;1816.00000000000;1827.00000000000;1831.00000000000;1809.00000000000;1829.00000000000;1827.00000000000;1841.00000000000;1820.00000000000;1817.00000000000;1826.00000000000;1822.00000000000;1796.00000000000;1797.00000000000;1811.00000000000;1817.00000000000;1819.00000000000;1830.00000000000;1811.00000000000;1808.00000000000;1825.00000000000;1808.00000000000;1809.00000000000;1821.00000000000;1817.00000000000;1821.00000000000;1833.00000000000;1819.00000000000;1811.00000000000;1820.00000000000;1830.00000000000;1849.00000000000;1844.00000000000;1813.00000000000;1812.00000000000;1820.00000000000;1833.00000000000;1780.00000000000;1790.00000000000;1790.00000000000;1762.00000000000;1723.00000000000;1707.00000000000;1636.00000000000;1542.00000000000;1472.00000000000;1398.00000000000;1327.00000000000;1257.00000000000;1225.00000000000;1204.00000000000;1197.00000000000;1252.00000000000;1273.00000000000;1384.00000000000;1511.00000000000;1622.00000000000;1840.00000000000;2153.00000000000;2439.00000000000;2660.00000000000;2707.00000000000;2811.00000000000;2860.00000000000;2758.00000000000;2662.00000000000;2550.00000000000;2499.00000000000;2426.00000000000;2412.00000000000;2441.00000000000;2455.00000000000;2444.00000000000;2379.00000000000;2419.00000000000;2455.00000000000;2392.00000000000;2293.00000000000;2231.00000000000;2279.00000000000;2342.00000000000;2034.00000000000;2001.00000000000;2017.00000000000;2035.00000000000;1923.00000000000;1804.00000000000;1753.00000000000;1732.00000000000;1761.00000000000;1783.00000000000;1685.00000000000;1597.00000000000;1551.00000000000;1522.00000000000;1465.00000000000;1443.00000000000;1416.00000000000;1414.00000000000;1449.00000000000;1489.00000000000;1510.00000000000;1563.00000000000;1559.00000000000;1616.00000000000;1701.00000000000;1757.00000000000;1779.00000000000;1809.00000000000;1787.00000000000;1819.00000000000;1830.00000000000;1854.00000000000;1843.00000000000;1817.00000000000;1863.00000000000;1845.00000000000;1832.00000000000;1820.00000000000;1822.00000000000;1804.00000000000;1802.00000000000;1803.00000000000;1780.00000000000;1815.00000000000;1804.00000000000;1807.00000000000;1810.00000000000;1810.00000000000;1828.00000000000;1823.00000000000;1827.00000000000;1846.00000000000;1834.00000000000;1850.00000000000;1841.00000000000;1842.00000000000;1854.00000000000;1839.00000000000;1817.00000000000;1815.00000000000;1814.00000000000;1830.00000000000;1836.00000000000;1833.00000000000;1823.00000000000;1818.00000000000;1830.00000000000;1829.00000000000;1836.00000000000
Gyro Z : 1909.00000000000;1935.00000000000;1936.00000000000;1913.00000000000;1912.00000000000;1918.00000000000;1902.00000000000;1944.00000000000;1920.00000000000;1902.00000000000;1923.00000000000;1911.00000000000;1916.00000000000;1907.00000000000;1915.00000000000;1896.00000000000;1919.00000000000;1907.00000000000;1902.00000000000;1899.00000000000;1905.00000000000;1916.00000000000;1915.00000000000;1911.00000000000;1920.00000000000;1922.00000000000;1906.00000000000;1906.00000000000;1912.00000000000;1896.00000000000;1919.00000000000;1931.00000000000;1901.00000000000;1900.00000000000;1888.00000000000;1909.00000000000;1905.00000000000;1894.00000000000;1894.00000000000;1886.00000000000;1897.00000000000;1898.00000000000;1909.00000000000;1921.00000000000;1952.00000000000;1958.00000000000;2027.00000000000;2049.00000000000;2086.00000000000;2141.00000000000;2095.00000000000;2102.00000000000;2083.00000000000;1995.00000000000;1976.00000000000;1924.00000000000;1830.00000000000;1743.00000000000;1771.00000000000;1902.00000000000;1884.00000000000;1810.00000000000;1887.00000000000;1915.00000000000;1857.00000000000;1831.00000000000;1882.00000000000;1953.00000000000;1960.00000000000;1979.00000000000;1951.00000000000;1922.00000000000;1933.00000000000;1975.00000000000;1978.00000000000;1959.00000000000;1942.00000000000;1890.00000000000;1885.00000000000;1895.00000000000;1943.00000000000;1902.00000000000;1833.00000000000;1936.00000000000;1972.00000000000;1952.00000000000;1862.00000000000;1811.00000000000;1838.00000000000;1846.00000000000;1865.00000000000;1893.00000000000;1980.00000000000;1945.00000000000;1902.00000000000;2017.00000000000;2027.00000000000;2027.00000000000;1957.00000000000;1985.00000000000;2016.00000000000;2070.00000000000;2037.00000000000;2014.00000000000;1950.00000000000;1951.00000000000;1931.00000000000;1919.00000000000;1880.00000000000;1859.00000000000;1889.00000000000;1892.00000000000;1879.00000000000;1882.00000000000;1895.00000000000;1905.00000000000;1894.00000000000;1915.00000000000;1921.00000000000;1927.00000000000;1920.00000000000;1916.00000000000;1925.00000000000;1933.00000000000;1915.00000000000;1924.00000000000;1898.00000000000;1916.00000000000;1898.00000000000;1908.00000000000;1942.00000000000;1907.00000000000;1927.00000000000;1922.00000000000;1921.00000000000;1917.00000000000;1906.00000000000;1933.00000000000;1915.00000000000;1910.00000000000;1909.00000000000;1911.00000000000;1917.00000000000;1923.00000000000;1899.00000000000;1930.00000000000;1914.00000000000;1900.00000000000;1923.00000000000;1906.00000000000
