COMMAND 1 SAMPLE 1
Accel X : 2851.00000000000;2848.00000000000;2823.00000000000;2832.00000000000;2850.00000000000;2845.00000000000;2837.00000000000;2849.00000000000;2848.00000000000;2844.00000000000;2816.00000000000;2857.00000000000;2845.00000000000;2845.00000000000;2842.00000000000;2845.00000000000;2869.00000000000;2852.00000000000;2834.00000000000;2837.00000000000;2823.00000000000;2847.00000000000;2826.00000000000;2834.00000000000;2845.00000000000;2851.00000000000;2838.00000000000;2867.00000000000;2815.00000000000;2815.00000000000;2829.00000000000;2847.00000000000;2856.00000000000;2833.00000000000;2833.00000000000;2837.00000000000;2836.00000000000;2827.00000000000;2841.00000000000;2849.00000000000;2817.00000000000;2840.00000000000;2809.00000000000;2799.00000000000;2799.00000000000;2856.00000000000;2836.00000000000;2770.00000000000;2714.00000000000;2748.00000000000;2800.00000000000;2751.00000000000;2803.00000000000;2915.00000000000;3147.00000000000;3094.00000000000;3008.00000000000;2785.00000000000;2799.00000000000;3011.00000000000;3113.00000000000;2955.00000000000;2772.00000000000;2738.00000000000;2731.00000000000;2636.00000000000;2631.00000000000;2698.00000000000;2721.00000000000;2727.00000000000;2716.00000000000;2661.00000000000;2663.00000000000;2696.00000000000;2710.00000000000;2740.00000000000;2774.00000000000;2765.00000000000;2765.00000000000;2790.00000000000;2826.00000000000;2814.00000000000;2820.00000000000;2841.00000000000;2843.00000000000;2822.00000000000;2835.00000000000;2735.00000000000;2704.00000000000;2768.00000000000;2803.00000000000;2819.00000000000;2855.00000000000;2797.00000000000;2751.00000000000;2831.00000000000;2884.00000000000;2878.00000000000;2869.00000000000;2864.00000000000;2829.00000000000;2816.00000000000;2770.00000000000;2764.00000000000;2795.00000000000;2854.00000000000;2883.00000000000;2903.00000000000;2906.00000000000;2880.00000000000;2916.00000000000;2966.00000000000;2972.00000000000;2927.00000000000;2913.00000000000;2873.00000000000;2875.00000000000;2861.00000000000;2833.00000000000;2800.00000000000;2811.00000000000;2816.00000000000;2832.00000000000;2836.00000000000;2831.00000000000;2837.00000000000;2862.00000000000;2837.00000000000;2850.00000000000;2870.00000000000;2869.00000000000;2848.00000000000;2845.00000000000;2868.00000000000;2894.00000000000;2871.00000000000;2857.00000000000;2871.00000000000;2827.00000000000;2819.00000000000;2826.00000000000;2830.00000000000;2808.00000000000;2828.00000000000;2833.00000000000;2829.00000000000;2854.00000000000;2835.00000000000;2843.00000000000;2847.00000000000
Accel Y : 1854.00000000000;1853.00000000000;1875.00000000000;1852.00000000000;1828.00000000000;1843.00000000000;1866.00000000000;1867.00000000000;1839.00000000000;1843.00000000000;1866.00000000000;1866.00000000000;1849.00000000000;1857.00000000000;1842.00000000000;1861.00000000000;1863.00000000000;1883.00000000000;1859.00000000000;1861.00000000000;1895.00000000000;1862.00000000000;1875.00000000000;1861.00000000000;1876.00000000000;1877.00000000000;1849.00000000000;1874.00000000000;1863.00000000000;1854.00000000000;1840.00000000000;1836.00000000000;1851.00000000000;1846.00000000000;1864.00000000000;1865.00000000000;1842.00000000000;1855.00000000000;1855.00000000000;1838.00000000000;1829.00000000000;1787.00000000000;1743.00000000000;1689.00000000000;1599.00000000000;1470.00000000000;1385.00000000000;1296.00000000000;1221.00000000000;1235.00000000000;1281.00000000000;1345.00000000000;1409.00000000000;1560.00000000000;1673.00000000000;1746.00000000000;1815.00000000000;1943.00000000000;2192.00000000000;2331.00000000000;2431.00000000000;2474.00000000000;2574.00000000000;2618.00000000000;2609.00000000000;2571.00000000000;2468.00000000000;2383.00000000000;2308.00000000000;2256.00000000000;2239.00000000000;2234.00000000000;2209.00000000000;2192.00000000000;2201.00000000000;2156.00000000000;2184.00000000000;2171.00000000000;2185.00000000000;2185.00000000000;2233.00000000000;2249.00000000000;2237.00000000000;2264.00000000000;2316.00000000000;2273.00000000000;2285.00000000000;2291.00000000000;2284.00000000000;2320.00000000000;2239.00000000000;2129.00000000000;2167.00000000000;2241.00000000000;2142.00000000000;2022.00000000000;1899.00000000000;1867.00000000000;1915.00000000000;1873.00000000000;1656.00000000000;1486.00000000000;1481.00000000000;1408.00000000000;1323.00000000000;1272.00000000000;1259.00000000000;1360.00000000000;1429.00000000000;1495.00000000000;1577.00000000000;1669.00000000000;1698.00000000000;1732.00000000000;1791.00000000000;1815.00000000000;1807.00000000000;1826.00000000000;1818.00000000000;1849.00000000000;1885.00000000000;1863.00000000000;1859.00000000000;1869.00000000000;1858.00000000000;1855.00000000000;1821.00000000000;1832.00000000000;1821.00000000000;1832.00000000000;1849.00000000000;1806.00000000000;1823.00000000000;1822.00000000000;1849.00000000000;1829.00000000000;1843.00000000000;1845.00000000000;1847.00000000000;1853.00000000000;1869.00000000000;1868.00000000000;1839.00000000000;1857.00000000000;1850.00000000000;1832.00000000000;1827.00000000000;1841.00000000000;1836.00000000000;1844.00000000000
Accel Z : 1885.00000000000;1866.00000000000;1864.00000000000;1858.00000000000;1844.00000000000;1893.00000000000;1867.00000000000;1861.00000000000;1869.00000000000;1876.00000000000;1887.00000000000;1894.00000000000;1863.00000000000;1880.00000000000;1851.00000000000;1864.00000000000;1867.00000000000;1877.00000000000;1890.00000000000;1864.00000000000;1883.00000000000;1875.00000000000;1883.00000000000;1869.00000000000;1887.00000000000;1861.00000000000;1835.00000000000;1869.00000000000;1930.00000000000;1931.00000000000;1896.00000000000;1890.00000000000;1870.00000000000;1876.00000000000;1865.00000000000;1857.00000000000;1870.00000000000;1866.00000000000;1846.00000000000;1854.00000000000;1871.00000000000;1847.00000000000;1866.00000000000;1913.00000000000;1921.00000000000;2021.00000000000;2158.00000000000;2134.00000000000;2134.00000000000;2171.00000000000;2173.00000000000;2114.00000000000;2050.00000000000;1979.00000000000;1966.00000000000;1927.00000000000;1888.00000000000;1771.00000000000;1878.00000000000;1913.00000000000;1943.00000000000;1812.00000000000;1808.00000000000;1866.00000000000;1927.00000000000;1840.00000000000;1821.00000000000;1829.00000000000;1791.00000000000;1844.00000000000;1903.00000000000;1904.00000000000;1930.00000000000;1941.00000000000;1960.00000000000;2001.00000000000;2007.00000000000;1999.00000000000;2001.00000000000;1980.00000000000;1962.00000000000;1954.00000000000;1948.00000000000;1947.00000000000;1925.00000000000;1856.00000000000;1861.00000000000;1911.00000000000;1928.00000000000;1908.00000000000;1820.00000000000;1824.00000000000;1834.00000000000;1915.00000000000;1838.00000000000;1725.00000000000;1640.00000000000;1667.00000000000;1810.00000000000;1865.00000000000;1827.00000000000;1692.00000000000;1795.00000000000;1879.00000000000;1851.00000000000;1814.00000000000;1841.00000000000;1900.00000000000;1960.00000000000;1919.00000000000;1943.00000000000;1907.00000000000;1871.00000000000;1809.00000000000;1804.00000000000;1832.00000000000;1822.00000000000;1830.00000000000;1769.00000000000;1773.00000000000;1791.00000000000;1796.00000000000;1790.00000000000;1807.00000000000;1807.00000000000;1816.00000000000;1796.00000000000;1823.00000000000;1830.00000000000;1845.00000000000;1841.00000000000;1822.00000000000;1839.00000000000;1828.00000000000;1840.00000000000;1840.00000000000;1850.00000000000;1840.00000000000;1845.00000000000;1832.00000000000;1826.00000000000;1827.00000000000;1817.00000000000;1837.00000000000;1821.00000000000;1794.00000000000;1820.00000000000;1811.00000000000;1815.00000000000;1813.00000000000
Gyro X : 2851.00000000000;2848.00000000000;2823.00000000000;2832.00000000000;2850.00000000000;2845.00000000000;2837.00000000000;2849.00000000000;2848.00000000000;2844.00000000000;2816.00000000000;2857.00000000000;2845.00000000000;2845.00000000000;2842.00000000000;2845.00000000000;2869.00000000000;2852.00000000000;2834.00000000000;2837.00000000000;2823.00000000000;2847.00000000000;2826.00000000000;2834.00000000000;2845.00000000000;2851.00000000000;2838.00000000000;2867.00000000000;2815.00000000000;2815.00000000000;2829.00000000000;2847.00000000000;2856.00000000000;2833.00000000000;2833.00000000000;2837.00000000000;2836.00000000000;2827.00000000000;2841.00000000000;2849.00000000000;2817.00000000000;2840.00000000000;2809.00000000000;2799.00000000000;2799.00000000000;2856.00000000000;2836.00000000000;2770.00000000000;2714.00000000000;2748.00000000000;2800.00000000000;2751.00000000000;2803.00000000000;2915.00000000000;3147.00000000000;3094.00000000000;3008.00000000000;2785.00000000000;2799.00000000000;3011.00000000000;3113.00000000000;2955.00000000000;2772.00000000000;2738.00000000000;2731.00000000000;2636.00000000000;2631.00000000000;2698.00000000000;2721.00000000000;2727.00000000000;2716.00000000000;2661.00000000000;2663.00000000000;2696.00000000000;2710.00000000000;2740.00000000000;2774.00000000000;2765.00000000000;2765.00000000000;2790.00000000000;2826.00000000000;2814.00000000000;2820.00000000000;2841.00000000000;2843.00000000000;2822.00000000000;2835.00000000000;2735.00000000000;2704.00000000000;2768.00000000000;2803.00000000000;2819.00000000000;2855.00000000000;2797.00000000000;2751.00000000000;2831.00000000000;2884.00000000000;2878.00000000000;2869.00000000000;2864.00000000000;2829.00000000000;2816.00000000000;2770.00000000000;2764.00000000000;2795.00000000000;2854.00000000000;2883.00000000000;2903.00000000000;2906.00000000000;2880.00000000000;2916.00000000000;2966.00000000000;2972.00000000000;2927.00000000000;2913.00000000000;2873.00000000000;2875.00000000000;2861.00000000000;2833.00000000000;2800.00000000000;2811.00000000000;2816.00000000000;2832.00000000000;2836.00000000000;2831.00000000000;2837.00000000000;2862.00000000000;2837.00000000000;2850.00000000000;2870.00000000000;2869.00000000000;2848.00000000000;2845.00000000000;2868.00000000000;2894.00000000000;2871.00000000000;2857.00000000000;2871.00000000000;2827.00000000000;2819.00000000000;2826.00000000000;2830.00000000000;2808.00000000000;2828.00000000000;2833.00000000000;2829.00000000000;2854.00000000000;2835.00000000000;2843.00000000000;2847.00000000000
Gyro Y : 1854.00000000000;1853.00000000000;1875.00000000000;1852.00000000000;1828.00000000000;1843.00000000000;1866.00000000000;1867.00000000000;1839.00000000000;1843.00000000000;1866.00000000000;1866.00000000000;1849.00000000000;1857.00000000000;1842.00000000000;1861.00000000000;1863.00000000000;1883.00000000000;1859.00000000000;1861.00000000000;1895.00000000000;1862.00000000000;1875.00000000000;1861.00000000000;1876.00000000000;1877.00000000000;1849.00000000000;1874.00000000000;1863.00000000000;1854.00000000000;1840.00000000000;1836.00000000000;1851.00000000000;1846.00000000000;1864.00000000000;1865.00000000000;1842.00000000000;1855.00000000000;1855.00000000000;1838.00000000000;1829.00000000000;1787.00000000000;1743.00000000000;1689.00000000000;1599.00000000000;1470.00000000000;1385.00000000000;1296.00000000000;1221.00000000000;1235.00000000000;1281.00000000000;1345.00000000000;1409.00000000000;1560.00000000000;1673.00000000000;1746.00000000000;1815.00000000000;1943.00000000000;2192.00000000000;2331.00000000000;2431.00000000000;2474.00000000000;2574.00000000000;2618.00000000000;2609.00000000000;2571.00000000000;2468.00000000000;2383.00000000000;2308.00000000000;2256.00000000000;2239.00000000000;2234.00000000000;2209.00000000000;2192.00000000000;2201.00000000000;2156.00000000000;2184.00000000000;2171.00000000000;2185.00000000000;2185.00000000000;2233.00000000000;2249.00000000000;2237.00000000000;2264.00000000000;2316.00000000000;2273.00000000000;2285.00000000000;2291.00000000000;2284.00000000000;2320.00000000000;2239.00000000000;2129.00000000000;2167.00000000000;2241.00000000000;2142.00000000000;2022.00000000000;1899.00000000000;1867.00000000000;1915.00000000000;1873.00000000000;1656.00000000000;1486.00000000000;1481.00000000000;1408.00000000000;1323.00000000000;1272.00000000000;1259.00000000000;1360.00000000000;1429.00000000000;1495.00000000000;1577.00000000000;1669.00000000000;1698.00000000000;1732.00000000000;1791.00000000000;1815.00000000000;1807.00000000000;1826.00000000000;1818.00000000000;1849.00000000000;1885.00000000000;1863.00000000000;1859.00000000000;1869.00000000000;1858.00000000000;1855.00000000000;1821.00000000000;1832.00000000000;1821.00000000000;1832.00000000000;1849.00000000000;1806.00000000000;1823.00000000000;1822.00000000000;1849.00000000000;1829.00000000000;1843.00000000000;1845.00000000000;1847.00000000000;1853.00000000000;1869.00000000000;1868.00000000000;1839.00000000000;1857.00000000000;1850.00000000000;1832.00000000000;1827.00000000000;1841.00000000000;1836.00000000000;1844.00000000000
Gyro Z : 1885.00000000000;1866.00000000000;1864.00000000000;1858.00000000000;1844.00000000000;1893.00000000000;1867.00000000000;1861.00000000000;1869.00000000000;1876.00000000000;1887.00000000000;1894.00000000000;1863.00000000000;1880.00000000000;1851.00000000000;1864.00000000000;1867.00000000000;1877.00000000000;1890.00000000000;1864.00000000000;1883.00000000000;1875.00000000000;1883.00000000000;1869.00000000000;1887.00000000000;1861.00000000000;1835.00000000000;1869.00000000000;1930.00000000000;1931.00000000000;1896.00000000000;1890.00000000000;1870.00000000000;1876.00000000000;1865.00000000000;1857.00000000000;1870.00000000000;1866.00000000000;1846.00000000000;1854.00000000000;1871.00000000000;1847.00000000000;1866.00000000000;1913.00000000000;1921.00000000000;2021.00000000000;2158.00000000000;2134.00000000000;2134.00000000000;2171.00000000000;2173.00000000000;2114.00000000000;2050.00000000000;1979.00000000000;1966.00000000000;1927.00000000000;1888.00000000000;1771.00000000000;1878.00000000000;1913.00000000000;1943.00000000000;1812.00000000000;1808.00000000000;1866.00000000000;1927.00000000000;1840.00000000000;1821.00000000000;1829.00000000000;1791.00000000000;1844.00000000000;1903.00000000000;1904.00000000000;1930.00000000000;1941.00000000000;1960.00000000000;2001.00000000000;2007.00000000000;1999.00000000000;2001.00000000000;1980.00000000000;1962.00000000000;1954.00000000000;1948.00000000000;1947.00000000000;1925.00000000000;1856.00000000000;1861.00000000000;1911.00000000000;1928.00000000000;1908.00000000000;1820.00000000000;1824.00000000000;1834.00000000000;1915.00000000000;1838.00000000000;1725.00000000000;1640.00000000000;1667.00000000000;1810.00000000000;1865.00000000000;1827.00000000000;1692.00000000000;1795.00000000000;1879.00000000000;1851.00000000000;1814.00000000000;1841.00000000000;1900.00000000000;1960.00000000000;1919.00000000000;1943.00000000000;1907.00000000000;1871.00000000000;1809.00000000000;1804.00000000000;1832.00000000000;1822.00000000000;1830.00000000000;1769.00000000000;1773.00000000000;1791.00000000000;1796.00000000000;1790.00000000000;1807.00000000000;1807.00000000000;1816.00000000000;1796.00000000000;1823.00000000000;1830.00000000000;1845.00000000000;1841.00000000000;1822.00000000000;1839.00000000000;1828.00000000000;1840.00000000000;1840.00000000000;1850.00000000000;1840.00000000000;1845.00000000000;1832.00000000000;1826.00000000000;1827.00000000000;1817.00000000000;1837.00000000000;1821.00000000000;1794.00000000000;1820.00000000000;1811.00000000000;1815.00000000000;1813.00000000000
COMMAND 1 SAMPLE 1
Accel X : 2832.00000000000;2839.00000000000;2843.00000000000;2836.00000000000;2858.00000000000;2847.00000000000;2836.00000000000;2858.00000000000;2851.00000000000;2839.00000000000;2834.00000000000;2817.00000000000;2831.00000000000;2845.00000000000;2831.00000000000;2828.00000000000;2829.00000000000;2838.00000000000;2838.00000000000;2832.00000000000;2829.00000000000;2840.00000000000;2832.00000000000;2844.00000000000;2845.00000000000;2843.00000000000;2835.00000000000;2840.00000000000;2843.00000000000;2831.00000000000;2823.00000000000;2851.00000000000;2842.00000000000;2828.00000000000;2823.00000000000;2823.00000000000;2822.00000000000;2830.00000000000;2839.00000000000;2836.00000000000;2850.00000000000;2835.00000000000;2825.00000000000;2829.00000000000;2827.00000000000;2832.00000000000;2832.00000000000;2851.00000000000;2861.00000000000;2832.00000000000;2858.00000000000;2832.00000000000;2821.00000000000;2831.00000000000;2829.00000000000;2839.00000000000;2795.00000000000;2792.00000000000;2801.00000000000;2796.00000000000;2800.00000000000;2827.00000000000;2786.00000000000;2715.00000000000;2723.00000000000;2666.00000000000;2774.00000000000;2955.00000000000;2927.00000000000;2910.00000000000;3120.00000000000;3255.00000000000;3069.00000000000;2959.00000000000;2944.00000000000;2937.00000000000;2901.00000000000;2776.00000000000;2727.00000000000;2783.00000000000;2760.00000000000;2643.00000000000;2524.00000000000;2513.00000000000;2580.00000000000;2550.00000000000;2488.00000000000;2533.00000000000;2560.00000000000;2587.00000000000;2666.00000000000;2731.00000000000;2790.00000000000;2825.00000000000;2738.00000000000;2750.00000000000;2887.00000000000;2915.00000000000;2918.00000000000;2825.00000000000;2801.00000000000;2851.00000000000;2883.00000000000;2846.00000000000;2830.00000000000;2857.00000000000;2821.00000000000;2784.00000000000;2721.00000000000;2824.00000000000;2842.00000000000;2895.00000000000;2901.00000000000;2901.00000000000;2899.00000000000;2877.00000000000;2894.00000000000;2924.00000000000;2898.00000000000;2888.00000000000;2904.00000000000;2934.00000000000;2900.00000000000;2875.00000000000;2831.00000000000;2819.00000000000;2850.00000000000;2885.00000000000;2896.00000000000;2829.00000000000;2823.00000000000;2810.00000000000;2837.00000000000;2841.00000000000;2836.00000000000;2812.00000000000;2804.00000000000;2834.00000000000;2857.00000000000;2856.00000000000;2831.00000000000;2815.00000000000;2858.00000000000;2875.00000000000;2851.00000000000;2857.00000000000;2853.00000000000;2836.00000000000;2850.00000000000;2852.00000000000
Accel Y : 1819.00000000000;1803.00000000000;1824.00000000000;1794.00000000000;1786.00000000000;1796.00000000000;1802.00000000000;1797.00000000000;1819.00000000000;1817.00000000000;1791.00000000000;1819.00000000000;1819.00000000000;1812.00000000000;1807.00000000000;1800.00000000000;1829.00000000000;1825.00000000000;1820.00000000000;1817.00000000000;1798.00000000000;1806.00000000000;1804.00000000000;1823.00000000000;1830.00000000000;1815.00000000000;1794.00000000000;1809.00000000000;1821.00000000000;1819.00000000000;1818.00000000000;1801.00000000000;1815.00000000000;1812.00000000000;1802.00000000000;1817.00000000000;1812.00000000000;1790.00000000000;1812.00000000000;1811.00000000000;1808.00000000000;1807.00000000000;1797.00000000000;1798.00000000000;1800.00000000000;1812.00000000000;1812.00000000000;1816.00000000000;1828.00000000000;1801.00000000000;1807.00000000000;1815.00000000000;1806.00000000000;1821.00000000000;1819.00000000000;1800.00000000000;1810.00000000000;1764.00000000000;1725.00000000000;1643.00000000000;1543.00000000000;1479.00000000000;1377.00000000000;1295.00000000000;1209.00000000000;1211.00000000000;1258.00000000000;1305.00000000000;1385.00000000000;1511.00000000000;1626.00000000000;1733.00000000000;1839.00000000000;2033.00000000000;2229.00000000000;2383.00000000000;2603.00000000000;2681.00000000000;2678.00000000000;2695.00000000000;2663.00000000000;2580.00000000000;2442.00000000000;2398.00000000000;2403.00000000000;2358.00000000000;2337.00000000000;2317.00000000000;2347.00000000000;2342.00000000000;2402.00000000000;2424.00000000000;2436.00000000000;2485.00000000000;2516.00000000000;2422.00000000000;2315.00000000000;2268.00000000000;2207.00000000000;2083.00000000000;1986.00000000000;1933.00000000000;1898.00000000000;1768.00000000000;1702.00000000000;1596.00000000000;1603.00000000000;1605.00000000000;1513.00000000000;1475.00000000000;1452.00000000000;1469.00000000000;1519.00000000000;1556.00000000000;1588.00000000000;1595.00000000000;1608.00000000000;1665.00000000000;1694.00000000000;1718.00000000000;1785.00000000000;1785.00000000000;1807.00000000000;1805.00000000000;1828.00000000000;1823.00000000000;1849.00000000000;1852.00000000000;1864.00000000000;1858.00000000000;1842.00000000000;1856.00000000000;1844.00000000000;1868.00000000000;1847.00000000000;1836.00000000000;1836.00000000000;1848.00000000000;1831.00000000000;1833.00000000000;1844.00000000000;1851.00000000000;1834.00000000000;1854.00000000000;1843.00000000000;1864.00000000000;1838.00000000000;1849.00000000000;1838.00000000000;1820.00000000000
Accel Z : 1844.00000000000;1848.00000000000;1851.00000000000;1844.00000000000;1836.00000000000;1817.00000000000;1822.00000000000;1843.00000000000;1832.00000000000;1863.00000000000;1842.00000000000;1845.00000000000;1833.00000000000;1836.00000000000;1842.00000000000;1831.00000000000;1834.00000000000;1829.00000000000;1837.00000000000;1843.00000000000;1844.00000000000;1843.00000000000;1827.00000000000;1848.00000000000;1828.00000000000;1835.00000000000;1843.00000000000;1834.00000000000;1852.00000000000;1835.00000000000;1856.00000000000;1820.00000000000;1833.00000000000;1824.00000000000;1825.00000000000;1837.00000000000;1859.00000000000;1840.00000000000;1831.00000000000;1844.00000000000;1829.00000000000;1828.00000000000;1818.00000000000;1828.00000000000;1848.00000000000;1825.00000000000;1826.00000000000;1853.00000000000;1843.00000000000;1843.00000000000;1832.00000000000;1840.00000000000;1848.00000000000;1819.00000000000;1835.00000000000;1817.00000000000;1822.00000000000;1844.00000000000;1851.00000000000;1834.00000000000;1866.00000000000;1922.00000000000;1964.00000000000;2001.00000000000;2070.00000000000;2082.00000000000;2121.00000000000;2103.00000000000;2048.00000000000;2078.00000000000;1973.00000000000;1927.00000000000;1824.00000000000;1878.00000000000;1902.00000000000;1921.00000000000;1876.00000000000;1822.00000000000;1768.00000000000;1876.00000000000;1937.00000000000;1865.00000000000;1791.00000000000;1869.00000000000;1961.00000000000;1913.00000000000;1871.00000000000;1899.00000000000;1900.00000000000;1891.00000000000;1871.00000000000;1867.00000000000;1841.00000000000;1865.00000000000;1801.00000000000;1757.00000000000;1808.00000000000;1826.00000000000;1778.00000000000;1819.00000000000;1909.00000000000;1955.00000000000;1866.00000000000;1794.00000000000;1848.00000000000;1999.00000000000;1954.00000000000;1910.00000000000;1911.00000000000;1940.00000000000;1956.00000000000;1937.00000000000;1966.00000000000;1938.00000000000;1932.00000000000;1884.00000000000;1886.00000000000;1883.00000000000;1880.00000000000;1849.00000000000;1838.00000000000;1848.00000000000;1842.00000000000;1835.00000000000;1833.00000000000;1832.00000000000;1823.00000000000;1814.00000000000;1822.00000000000;1812.00000000000;1829.00000000000;1819.00000000000;1778.00000000000;1849.00000000000;1850.00000000000;1840.00000000000;1847.00000000000;1852.00000000000;1839.00000000000;1835.00000000000;1813.00000000000;1872.00000000000;1839.00000000000;1831.00000000000;1835.00000000000;1834.00000000000;1849.00000000000;1839.00000000000;1842.00000000000;1828.00000000000
Gyro X : 2832.00000000000;2839.00000000000;2843.00000000000;2836.00000000000;2858.00000000000;2847.00000000000;2836.00000000000;2858.00000000000;2851.00000000000;2839.00000000000;2834.00000000000;2817.00000000000;2831.00000000000;2845.00000000000;2831.00000000000;2828.00000000000;2829.00000000000;2838.00000000000;2838.00000000000;2832.00000000000;2829.00000000000;2840.00000000000;2832.00000000000;2844.00000000000;2845.00000000000;2843.00000000000;2835.00000000000;2840.00000000000;2843.00000000000;2831.00000000000;2823.00000000000;2851.00000000000;2842.00000000000;2828.00000000000;2823.00000000000;2823.00000000000;2822.00000000000;2830.00000000000;2839.00000000000;2836.00000000000;2850.00000000000;2835.00000000000;2825.00000000000;2829.00000000000;2827.00000000000;2832.00000000000;2832.00000000000;2851.00000000000;2861.00000000000;2832.00000000000;2858.00000000000;2832.00000000000;2821.00000000000;2831.00000000000;2829.00000000000;2839.00000000000;2795.00000000000;2792.00000000000;2801.00000000000;2796.00000000000;2800.00000000000;2827.00000000000;2786.00000000000;2715.00000000000;2723.00000000000;2666.00000000000;2774.00000000000;2955.00000000000;2927.00000000000;2910.00000000000;3120.00000000000;3255.00000000000;3069.00000000000;2959.00000000000;2944.00000000000;2937.00000000000;2901.00000000000;2776.00000000000;2727.00000000000;2783.00000000000;2760.00000000000;2643.00000000000;2524.00000000000;2513.00000000000;2580.00000000000;2550.00000000000;2488.00000000000;2533.00000000000;2560.00000000000;2587.00000000000;2666.00000000000;2731.00000000000;2790.00000000000;2825.00000000000;2738.00000000000;2750.00000000000;2887.00000000000;2915.00000000000;2918.00000000000;2825.00000000000;2801.00000000000;2851.00000000000;2883.00000000000;2846.00000000000;2830.00000000000;2857.00000000000;2821.00000000000;2784.00000000000;2721.00000000000;2824.00000000000;2842.00000000000;2895.00000000000;2901.00000000000;2901.00000000000;2899.00000000000;2877.00000000000;2894.00000000000;2924.00000000000;2898.00000000000;2888.00000000000;2904.00000000000;2934.00000000000;2900.00000000000;2875.00000000000;2831.00000000000;2819.00000000000;2850.00000000000;2885.00000000000;2896.00000000000;2829.00000000000;2823.00000000000;2810.00000000000;2837.00000000000;2841.00000000000;2836.00000000000;2812.00000000000;2804.00000000000;2834.00000000000;2857.00000000000;2856.00000000000;2831.00000000000;2815.00000000000;2858.00000000000;2875.00000000000;2851.00000000000;2857.00000000000;2853.00000000000;2836.00000000000;2850.00000000000;2852.00000000000
Gyro Y : 1819.00000000000;1803.00000000000;1824.00000000000;1794.00000000000;1786.00000000000;1796.00000000000;1802.00000000000;1797.00000000000;1819.00000000000;1817.00000000000;1791.00000000000;1819.00000000000;1819.00000000000;1812.00000000000;1807.00000000000;1800.00000000000;1829.00000000000;1825.00000000000;1820.00000000000;1817.00000000000;1798.00000000000;1806.00000000000;1804.00000000000;1823.00000000000;1830.00000000000;1815.00000000000;1794.00000000000;1809.00000000000;1821.00000000000;1819.00000000000;1818.00000000000;1801.00000000000;1815.00000000000;1812.00000000000;1802.00000000000;1817.00000000000;1812.00000000000;1790.00000000000;1812.00000000000;1811.00000000000;1808.00000000000;1807.00000000000;1797.00000000000;1798.00000000000;1800.00000000000;1812.00000000000;1812.00000000000;1816.00000000000;1828.00000000000;1801.00000000000;1807.00000000000;1815.00000000000;1806.00000000000;1821.00000000000;1819.00000000000;1800.00000000000;1810.00000000000;1764.00000000000;1725.00000000000;1643.00000000000;1543.00000000000;1479.00000000000;1377.00000000000;1295.00000000000;1209.00000000000;1211.00000000000;1258.00000000000;1305.00000000000;1385.00000000000;1511.00000000000;1626.00000000000;1733.00000000000;1839.00000000000;2033.00000000000;2229.00000000000;2383.00000000000;2603.00000000000;2681.00000000000;2678.00000000000;2695.00000000000;2663.00000000000;2580.00000000000;2442.00000000000;2398.00000000000;2403.00000000000;2358.00000000000;2337.00000000000;2317.00000000000;2347.00000000000;2342.00000000000;2402.00000000000;2424.00000000000;2436.00000000000;2485.00000000000;2516.00000000000;2422.00000000000;2315.00000000000;2268.00000000000;2207.00000000000;2083.00000000000;1986.00000000000;1933.00000000000;1898.00000000000;1768.00000000000;1702.00000000000;1596.00000000000;1603.00000000000;1605.00000000000;1513.00000000000;1475.00000000000;1452.00000000000;1469.00000000000;1519.00000000000;1556.00000000000;1588.00000000000;1595.00000000000;1608.00000000000;1665.00000000000;1694.00000000000;1718.00000000000;1785.00000000000;1785.00000000000;1807.00000000000;1805.00000000000;1828.00000000000;1823.00000000000;1849.00000000000;1852.00000000000;1864.00000000000;1858.00000000000;1842.00000000000;1856.00000000000;1844.00000000000;1868.00000000000;1847.00000000000;1836.00000000000;1836.00000000000;1848.00000000000;1831.00000000000;1833.00000000000;1844.00000000000;1851.00000000000;1834.00000000000;1854.00000000000;1843.00000000000;1864.00000000000;1838.00000000000;1849.00000000000;1838.00000000000;1820.00000000000
Gyro Z : 1844.00000000000;1848.00000000000;1851.00000000000;1844.00000000000;1836.00000000000;1817.00000000000;1822.00000000000;1843.00000000000;1832.00000000000;1863.00000000000;1842.00000000000;1845.00000000000;1833.00000000000;1836.00000000000;1842.00000000000;1831.00000000000;1834.00000000000;1829.00000000000;1837.00000000000;1843.00000000000;1844.00000000000;1843.00000000000;1827.00000000000;1848.00000000000;1828.00000000000;1835.00000000000;1843.00000000000;1834.00000000000;1852.00000000000;1835.00000000000;1856.00000000000;1820.00000000000;1833.00000000000;1824.00000000000;1825.00000000000;1837.00000000000;1859.00000000000;1840.00000000000;1831.00000000000;1844.00000000000;1829.00000000000;1828.00000000000;1818.00000000000;1828.00000000000;1848.00000000000;1825.00000000000;1826.00000000000;1853.00000000000;1843.00000000000;1843.00000000000;1832.00000000000;1840.00000000000;1848.00000000000;1819.00000000000;1835.00000000000;1817.00000000000;1822.00000000000;1844.00000000000;1851.00000000000;1834.00000000000;1866.00000000000;1922.00000000000;1964.00000000000;2001.00000000000;2070.00000000000;2082.00000000000;2121.00000000000;2103.00000000000;2048.00000000000;2078.00000000000;1973.00000000000;1927.00000000000;1824.00000000000;1878.00000000000;1902.00000000000;1921.00000000000;1876.00000000000;1822.00000000000;1768.00000000000;1876.00000000000;1937.00000000000;1865.00000000000;1791.00000000000;1869.00000000000;1961.00000000000;1913.00000000000;1871.00000000000;1899.00000000000;1900.00000000000;1891.00000000000;1871.00000000000;1867.00000000000;1841.00000000000;1865.00000000000;1801.00000000000;1757.00000000000;1808.00000000000;1826.00000000000;1778.00000000000;1819.00000000000;1909.00000000000;1955.00000000000;1866.00000000000;1794.00000000000;1848.00000000000;1999.00000000000;1954.00000000000;1910.00000000000;1911.00000000000;1940.00000000000;1956.00000000000;1937.00000000000;1966.00000000000;1938.00000000000;1932.00000000000;1884.00000000000;1886.00000000000;1883.00000000000;1880.00000000000;1849.00000000000;1838.00000000000;1848.00000000000;1842.00000000000;1835.00000000000;1833.00000000000;1832.00000000000;1823.00000000000;1814.00000000000;1822.00000000000;1812.00000000000;1829.00000000000;1819.00000000000;1778.00000000000;1849.00000000000;1850.00000000000;1840.00000000000;1847.00000000000;1852.00000000000;1839.00000000000;1835.00000000000;1813.00000000000;1872.00000000000;1839.00000000000;1831.00000000000;1835.00000000000;1834.00000000000;1849.00000000000;1839.00000000000;1842.00000000000;1828.00000000000
COMMAND 1 SAMPLE 1
Accel X : 2814.00000000000;2820.00000000000;2823.00000000000;2820.00000000000;2818.00000000000;2812.00000000000;2839.00000000000;2798.00000000000;2817.00000000000;2819.00000000000;2815.00000000000;2795.00000000000;2809.00000000000;2820.00000000000;2824.00000000000;2836.00000000000;2834.00000000000;2807.00000000000;2799.00000000000;2814.00000000000;2794.00000000000;2827.00000000000;2823.00000000000;2814.00000000000;2804.00000000000;2802.00000000000;2811.00000000000;2816.00000000000;2825.00000000000;2798.00000000000;2819.00000000000;2815.00000000000;2800.00000000000;2817.00000000000;2801.00000000000;2804.00000000000;2815.00000000000;2801.00000000000;2825.00000000000;2847.00000000000;2819.00000000000;2819.00000000000;2786.00000000000;2778.00000000000;2787.00000000000;2809.00000000000;2837.00000000000;2854.00000000000;2843.00000000000;2824.00000000000;2805.00000000000;2814.00000000000;2882.00000000000;3021.00000000000;2964.00000000000;2937.00000000000;2967.00000000000;2982.00000000000;2895.00000000000;2976.00000000000;3015.00000000000;2826.00000000000;2784.00000000000;2750.00000000000;2606.00000000000;2503.00000000000;2536.00000000000;2588.00000000000;2565.00000000000;2557.00000000000;2623.00000000000;2622.00000000000;2622.00000000000;2638.00000000000;2653.00000000000;2606.00000000000;2698.00000000000;2765.00000000000;2837.00000000000;2812.00000000000;2793.00000000000;2766.00000000000;2936.00000000000;3000.00000000000;2843.00000000000;2816.00000000000;2798.00000000000;2886.00000000000;3015.00000000000;2957.00000000000;2823.00000000000;2766.00000000000;2743.00000000000;2747.00000000000;2752.00000000000;2725.00000000000;2721.00000000000;2735.00000000000;2730.00000000000;2767.00000000000;2834.00000000000;2874.00000000000;2918.00000000000;2893.00000000000;2859.00000000000;2876.00000000000;2890.00000000000;2922.00000000000;2874.00000000000;2843.00000000000;2810.00000000000;2788.00000000000;2775.00000000000;2807.00000000000;2802.00000000000;2811.00000000000;2762.00000000000;2778.00000000000;2821.00000000000;2839.00000000000;2833.00000000000;2831.00000000000;2819.00000000000;2832.00000000000;2842.00000000000;2837.00000000000;2829.00000000000;2829.00000000000;2808.00000000000;2797.00000000000;2839.00000000000;2827.00000000000;2811.00000000000;2799.00000000000;2798.00000000000;2826.00000000000;2821.00000000000;2814.00000000000;2811.00000000000;2817.00000000000;2849.00000000000;2848.00000000000;2824.00000000000;2859.00000000000;2837.00000000000;2821.00000000000;2845.00000000000;2842.00000000000;2853.00000000000;2841.00000000000
Accel Y : 1821.00000000000;1816.00000000000;1827.00000000000;1831.00000000000;1809.00000000000;1829.00000000000;1827.00000000000;1841.00000000000;1820.00000000000;1817.00000000000;1826.00000000000;1822.00000000000;1796.00000000000;1797.00000000000;1811.00000000000;1817.00000000000;1819.00000000000;1830.00000000000;1811.00000000000;1808.00000000000;1825.00000000000;1808.00000000000;1809.00000000000;1821.00000000000;1817.00000000000;1821.00000000000;1833.00000000000;1819.00000000000;1811.00000000000;1820.00000000000;1830.00000000000;1849.00000000000;1844.00000000000;1813.00000000000;1812.00000000000;1820.00000000000;1833.00000000000;1780.00000000000;1790.00000000000;1790.00000000000;1762.00000000000;1723.00000000000;1707.00000000000;1636.00000000000;1542.00000000000;1472.00000000000;1398.00000000000;1327.00000000000;1257.00000000000;1225.00000000000;1204.00000000000;1197.00000000000;1252.00000000000;1273.00000000000;1384.00000000000;1511.00000000000;1622.00000000000;1840.00000000000;2153.00000000000;2439.00000000000;2660.00000000000;2707.00000000000;2811.00000000000;2860.00000000000;2758.00000000000;2662.00000000000;2550.00000000000;2499.00000000000;2426.00000000000;2412.00000000000;2441.00000000000;2455.00000000000;2444.00000000000;2379.00000000000;2419.00000000000;2455.00000000000;2392.00000000000;2293.00000000000;2231.00000000000;2279.00000000000;2342.00000000000;2034.00000000000;2001.00000000000;2017.00000000000;2035.00000000000;1923.00000000000;1804.00000000000;1753.00000000000;1732.00000000000;1761.00000000000;1783.00000000000;1685.00000000000;1597.00000000000;1551.00000000000;1522.00000000000;1465.00000000000;1443.00000000000;1416.00000000000;1414.00000000000;1449.00000000000;1489.00000000000;1510.00000000000;1563.00000000000;1559.00000000000;1616.00000000000;1701.00000000000;1757.00000000000;1779.00000000000;1809.00000000000;1787.00000000000;1819.00000000000;1830.00000000000;1854.00000000000;1843.00000000000;1817.00000000000;1863.00000000000;1845.00000000000;1832.00000000000;1820.00000000000;1822.00000000000;1804.00000000000;1802.00000000000;1803.00000000000;1780.00000000000;1815.00000000000;1804.00000000000;1807.00000000000;1810.00000000000;1810.00000000000;1828.00000000000;1823.00000000000;1827.00000000000;1846.00000000000;1834.00000000000;1850.00000000000;1841.00000000000;1842.00000000000;1854.00000000000;1839.00000000000;1817.00000000000;1815.00000000000;1814.00000000000;1830.00000000000;1836.00000000000;1833.00000000000;1823.00000000000;1818.00000000000;1830.00000000000;1829.00000000000;1836.00000000000
Accel Z : 1909.00000000000;1935.00000000000;1936.00000000000;1913.00000000000;1912.00000000000;1918.00000000000;1902.00000000000;1944.00000000000;1920.00000000000;1902.00000000000;1923.00000000000;1911.00000000000;1916.00000000000;1907.00000000000;1915.00000000000;1896.00000000000;1919.00000000000;1907.00000000000;1902.00000000000;1899.00000000000;1905.00000000000;1916.00000000000;1915.00000000000;1911.00000000000;1920.00000000000;1922.00000000000;1906.00000000000;1906.00000000000;1912.00000000000;1896.00000000000;1919.00000000000;1931.00000000000;1901.00000000000;1900.00000000000;1888.00000000000;1909.00000000000;1905.00000000000;1894.00000000000;1894.00000000000;1886.00000000000;1897.00000000000;1898.00000000000;1909.00000000000;1921.00000000000;1952.00000000000;1958.00000000000;2027.00000000000;2049.00000000000;2086.00000000000;2141.00000000000;2095.00000000000;2102.00000000000;2083.00000000000;1995.00000000000;1976.00000000000;1924.00000000000;1830.00000000000;1743.00000000000;1771.00000000000;1902.00000000000;1884.00000000000;1810.00000000000;1887.00000000000;1915.00000000000;1857.00000000000;1831.00000000000;1882.00000000000;1953.00000000000;1960.00000000000;1979.00000000000;1951.00000000000;1922.00000000000;1933.00000000000;1975.00000000000;1978.00000000000;1959.00000000000;1942.00000000000;1890.00000000000;1885.00000000000;1895.00000000000;1943.00000000000;1902.00000000000;1833.00000000000;1936.00000000000;1972.00000000000;1952.00000000000;1862.00000000000;1811.00000000000;1838.00000000000;1846.00000000000;1865.00000000000;1893.00000000000;1980.00000000000;1945.00000000000;1902.00000000000;2017.00000000000;2027.00000000000;2027.00000000000;1957.00000000000;1985.00000000000;2016.00000000000;2070.00000000000;2037.00000000000;2014.00000000000;1950.00000000000;1951.00000000000;1931.00000000000;1919.00000000000;1880.00000000000;1859.00000000000;1889.00000000000;1892.00000000000;1879.00000000000;1882.00000000000;1895.00000000000;1905.00000000000;1894.00000000000;1915.00000000000;1921.00000000000;1927.00000000000;1920.00000000000;1916.00000000000;1925.00000000000;1933.00000000000;1915.00000000000;1924.00000000000;1898.00000000000;1916.00000000000;1898.00000000000;1908.00000000000;1942.00000000000;1907.00000000000;1927.00000000000;1922.00000000000;1921.00000000000;1917.00000000000;1906.00000000000;1933.00000000000;1915.00000000000;1910.00000000000;1909.00000000000;1911.00000000000;1917.00000000000;1923.00000000000;1899.00000000000;1930.00000000000;1914.00000000000;1900.00000000000;1923.00000000000;1906.00000000000
Gyro X : 2814.00000000000;2820.00000000000;2823.00000000000;2820.00000000000;2818.00000000000;2812.00000000000;2839.00000000000;2798.00000000000;2817.00000000000;2819.00000000000;2815.00000000000;2795.00000000000;2809.00000000000;2820.00000000000;2824.00000000000;2836.00000000000;2834.00000000000;2807.00000000000;2799.00000000000;2814.00000000000;2794.00000000000;2827.00000000000;2823.00000000000;2814.00000000000;2804.00000000000;2802.00000000000;2811.00000000000;2816.00000000000;2825.00000000000;2798.00000000000;2819.00000000000;2815.00000000000;2800.00000000000;2817.00000000000;2801.00000000000;2804.00000000000;2815.00000000000;2801.00000000000;2825.00000000000;2847.00000000000;2819.00000000000;2819.00000000000;2786.00000000000;2778.00000000000;2787.00000000000;2809.00000000000;2837.00000000000;2854.00000000000;2843.00000000000;2824.00000000000;2805.00000000000;2814.00000000000;2882.00000000000;3021.00000000000;2964.00000000000;2937.00000000000;2967.00000000000;2982.00000000000;2895.00000000000;2976.00000000000;3015.00000000000;2826.00000000000;2784.00000000000;2750.00000000000;2606.00000000000;2503.00000000000;2536.00000000000;2588.00000000000;2565.00000000000;2557.00000000000;2623.00000000000;2622.00000000000;2622.00000000000;2638.00000000000;2653.00000000000;2606.00000000000;2698.00000000000;2765.00000000000;2837.00000000000;2812.00000000000;2793.00000000000;2766.00000000000;2936.00000000000;3000.00000000000;2843.00000000000;2816.00000000000;2798.00000000000;2886.00000000000;3015.00000000000;2957.00000000000;2823.00000000000;2766.00000000000;2743.00000000000;2747.00000000000;2752.00000000000;2725.00000000000;2721.00000000000;2735.00000000000;2730.00000000000;2767.00000000000;2834.00000000000;2874.00000000000;2918.00000000000;2893.00000000000;2859.00000000000;2876.00000000000;2890.00000000000;2922.00000000000;2874.00000000000;2843.00000000000;2810.00000000000;2788.00000000000;2775.00000000000;2807.00000000000;2802.00000000000;2811.00000000000;2762.00000000000;2778.00000000000;2821.00000000000;2839.00000000000;2833.00000000000;2831.00000000000;2819.00000000000;2832.00000000000;2842.00000000000;2837.00000000000;2829.00000000000;2829.00000000000;2808.00000000000;2797.00000000000;2839.00000000000;2827.00000000000;2811.00000000000;2799.00000000000;2798.00000000000;2826.00000000000;2821.00000000000;2814.00000000000;2811.00000000000;2817.00000000000;2849.00000000000;2848.00000000000;2824.00000000000;2859.00000000000;2837.00000000000;2821.00000000000;2845.00000000000;2842.00000000000;2853.00000000000;2841.00000000000
Gyro Y : 1821.00000000000;1816.00000000000;1827.00000000000;1831.00000000000;1809.00000000000;1829.00000000000;1827.00000000000;1841.00000000000;1820.00000000000;1817.00000000000;1826.00000000000;1822.00000000000;1796.00000000000;1797.00000000000;1811.00000000000;1817.00000000000;1819.00000000000;1830.00000000000;1811.00000000000;1808.00000000000;1825.00000000000;1808.00000000000;1809.00000000000;1821.00000000000;1817.00000000000;1821.00000000000;1833.00000000000;1819.00000000000;1811.00000000000;1820.00000000000;1830.00000000000;1849.00000000000;1844.00000000000;1813.00000000000;1812.00000000000;1820.00000000000;1833.00000000000;1780.00000000000;1790.00000000000;1790.00000000000;1762.00000000000;1723.00000000000;1707.00000000000;1636.00000000000;1542.00000000000;1472.00000000000;1398.00000000000;1327.00000000000;1257.00000000000;1225.00000000000;1204.00000000000;1197.00000000000;1252.00000000000;1273.00000000000;1384.00000000000;1511.00000000000;1622.00000000000;1840.00000000000;2153.00000000000;2439.00000000000;2660.00000000000;2707.00000000000;2811.00000000000;2860.00000000000;2758.00000000000;2662.00000000000;2550.00000000000;2499.00000000000;2426.00000000000;2412.00000000000;2441.00000000000;2455.00000000000;2444.00000000000;2379.00000000000;2419.00000000000;2455.00000000000;2392.00000000000;2293.00000000000;2231.00000000000;2279.00000000000;2342.00000000000;2034.00000000000;2001.00000000000;2017.00000000000;2035.00000000000;1923.00000000000;1804.00000000000;1753.00000000000;1732.00000000000;1761.00000000000;1783.00000000000;1685.00000000000;1597.00000000000;1551.00000000000;1522.00000000000;1465.00000000000;1443.00000000000;1416.00000000000;1414.00000000000;1449.00000000000;1489.00000000000;1510.00000000000;1563.00000000000;1559.00000000000;1616.00000000000;1701.00000000000;1757.00000000000;1779.00000000000;1809.00000000000;1787.00000000000;1819.00000000000;1830.00000000000;1854.00000000000;1843.00000000000;1817.00000000000;1863.00000000000;1845.00000000000;1832.00000000000;1820.00000000000;1822.00000000000;1804.00000000000;1802.00000000000;1803.00000000000;1780.00000000000;1815.00000000000;1804.00000000000;1807.00000000000;1810.00000000000;1810.00000000000;1828.00000000000;1823.00000000000;1827.00000000000;1846.00000000000;1834.00000000000;1850.00000000000;1841.00000000000;1842.00000000000;1854.00000000000;1839.00000000000;1817.00000000000;1815.00000000000;1814.00000000000;1830.00000000000;1836.00000000000;1833.00000000000;1823.00000000000;1818.00000000000;1830.00000000000;1829.00000000000;1836.00000000000
Gyro Z : 1909.00000000000;1935.00000000000;1936.00000000000;1913.00000000000;1912.00000000000;1918.00000000000;1902.00000000000;1944.00000000000;1920.00000000000;1902.00000000000;1923.00000000000;1911.00000000000;1916.00000000000;1907.00000000000;1915.00000000000;1896.00000000000;1919.00000000000;1907.00000000000;1902.00000000000;1899.00000000000;1905.00000000000;1916.00000000000;1915.00000000000;1911.00000000000;1920.00000000000;1922.00000000000;1906.00000000000;1906.00000000000;1912.00000000000;1896.00000000000;1919.00000000000;1931.00000000000;1901.00000000000;1900.00000000000;1888.00000000000;1909.00000000000;1905.00000000000;1894.00000000000;1894.00000000000;1886.00000000000;1897.00000000000;1898.00000000000;1909.00000000000;1921.00000000000;1952.00000000000;1958.00000000000;2027.00000000000;2049.00000000000;2086.00000000000;2141.00000000000;2095.00000000000;2102.00000000000;2083.00000000000;1995.00000000000;1976.00000000000;1924.00000000000;1830.00000000000;1743.00000000000;1771.00000000000;1902.00000000000;1884.00000000000;1810.00000000000;1887.00000000000;1915.00000000000;1857.00000000000;1831.00000000000;1882.00000000000;1953.00000000000;1960.00000000000;1979.00000000000;1951.00000000000;1922.00000000000;1933.00000000000;1975.00000000000;1978.00000000000;1959.00000000000;1942.00000000000;1890.00000000000;1885.00000000000;1895.00000000000;1943.00000000000;1902.00000000000;1833.00000000000;1936.00000000000;1972.00000000000;1952.00000000000;1862.00000000000;1811.00000000000;1838.00000000000;1846.00000000000;1865.00000000000;1893.00000000000;1980.00000000000;1945.00000000000;1902.00000000000;2017.00000000000;2027.00000000000;2027.00000000000;1957.00000000000;1985.00000000000;2016.00000000000;2070.00000000000;2037.00000000000;2014.00000000000;1950.00000000000;1951.00000000000;1931.00000000000;1919.00000000000;1880.00000000000;1859.00000000000;1889.00000000000;1892.00000000000;1879.00000000000;1882.00000000000;1895.00000000000;1905.00000000000;1894.00000000000;1915.00000000000;1921.00000000000;1927.00000000000;1920.00000000000;1916.00000000000;1925.00000000000;1933.00000000000;1915.00000000000;1924.00000000000;1898.00000000000;1916.00000000000;1898.00000000000;1908.00000000000;1942.00000000000;1907.00000000000;1927.00000000000;1922.00000000000;1921.00000000000;1917.00000000000;1906.00000000000;1933.00000000000;1915.00000000000;1910.00000000000;1909.00000000000;1911.00000000000;1917.00000000000;1923.00000000000;1899.00000000000;1930.00000000000;1914.00000000000;1900.00000000000;1923.00000000000;1906.00000000000
COMMAND 1 SAMPLE 1
Accel X : 2802.00000000000;2845.00000000000;2831.00000000000;2818.00000000000;2823.00000000000;2828.00000000000;2821.00000000000;2803.00000000000;2833.00000000000;2807.00000000000;2842.00000000000;2851.00000000000;2809.00000000000;2838.00000000000;2836.00000000000;2806.00000000000;2825.00000000000;2821.00000000000;2831.00000000000;2809.00000000000;2802.00000000000;2818.00000000000;2821.00000000000;2814.00000000000;2821.00000000000;2813.00000000000;2819.00000000000;2814.00000000000;2822.00000000000;2822.00000000000;2826.00000000000;2841.00000000000;2820.00000000000;2843.00000000000;2827.00000000000;2811.00000000000;2825.00000000000;2820.00000000000;2821.00000000000;2813.00000000000;2814.00000000000;2815.00000000000;2814.00000000000;2828.00000000000;2804.00000000000;2813.00000000000;2816.00000000000;2797.00000000000;2784.00000000000;2792.00000000000;2804.00000000000;2825.00000000000;2863.00000000000;2890.00000000000;2827.00000000000;2743.00000000000;2726.00000000000;2739.00000000000;2748.00000000000;2729.00000000000;2840.00000000000;3080.00000000000;3028.00000000000;2773.00000000000;2621.00000000000;2717.00000000000;2835.00000000000;2886.00000000000;2800.00000000000;2738.00000000000;2775.00000000000;2688.00000000000;2639.00000000000;2645.00000000000;2592.00000000000;2561.00000000000;2538.00000000000;2600.00000000000;2684.00000000000;2711.00000000000;2740.00000000000;2766.00000000000;2726.00000000000;2724.00000000000;2739.00000000000;2808.00000000000;2815.00000000000;2833.00000000000;2879.00000000000;2888.00000000000;2860.00000000000;2900.00000000000;2811.00000000000;2730.00000000000;2835.00000000000;2787.00000000000;2697.00000000000;2690.00000000000;2598.00000000000;2671.00000000000;2874.00000000000;2997.00000000000;3017.00000000000;2949.00000000000;2898.00000000000;2885.00000000000;2900.00000000000;2886.00000000000;2880.00000000000;2889.00000000000;2909.00000000000;2887.00000000000;2822.00000000000;2780.00000000000;2773.00000000000;2790.00000000000;2796.00000000000;2725.00000000000;2758.00000000000;2759.00000000000;2772.00000000000;2788.00000000000;2822.00000000000;2807.00000000000;2804.00000000000;2848.00000000000;2866.00000000000;2850.00000000000;2845.00000000000;2827.00000000000;2860.00000000000;2839.00000000000;2825.00000000000;2859.00000000000;2834.00000000000;2836.00000000000;2839.00000000000;2767.00000000000;2787.00000000000;2786.00000000000;2762.00000000000;2777.00000000000;2809.00000000000;2809.00000000000;2802.00000000000;2820.00000000000;2840.00000000000;2810.00000000000;2814.00000000000;2838.00000000000
Accel Y : 1803.00000000000;1825.00000000000;1825.00000000000;1810.00000000000;1839.00000000000;1799.00000000000;1804.00000000000;1814.00000000000;1822.00000000000;1826.00000000000;1813.00000000000;1806.00000000000;1827.00000000000;1823.00000000000;1815.00000000000;1818.00000000000;1798.00000000000;1812.00000000000;1811.00000000000;1801.00000000000;1805.00000000000;1821.00000000000;1797.00000000000;1797.00000000000;1801.00000000000;1788.00000000000;1802.00000000000;1787.00000000000;1797.00000000000;1796.00000000000;1801.00000000000;1805.00000000000;1804.00000000000;1840.00000000000;1815.00000000000;1827.00000000000;1810.00000000000;1835.00000000000;1833.00000000000;1849.00000000000;1813.00000000000;1844.00000000000;1835.00000000000;1815.00000000000;1824.00000000000;1802.00000000000;1793.00000000000;1792.00000000000;1751.00000000000;1689.00000000000;1627.00000000000;1509.00000000000;1454.00000000000;1376.00000000000;1263.00000000000;1193.00000000000;1166.00000000000;1190.00000000000;1198.00000000000;1237.00000000000;1324.00000000000;1420.00000000000;1482.00000000000;1534.00000000000;1920.00000000000;2349.00000000000;2676.00000000000;2850.00000000000;2963.00000000000;2906.00000000000;2805.00000000000;2558.00000000000;2392.00000000000;2363.00000000000;2328.00000000000;2299.00000000000;2315.00000000000;2328.00000000000;2276.00000000000;2300.00000000000;2321.00000000000;2400.00000000000;2384.00000000000;2321.00000000000;2365.00000000000;2384.00000000000;2408.00000000000;2339.00000000000;2385.00000000000;2373.00000000000;2293.00000000000;2190.00000000000;2090.00000000000;2039.00000000000;1942.00000000000;1707.00000000000;1469.00000000000;1366.00000000000;1183.00000000000;1065.00000000000;1109.00000000000;1183.00000000000;1310.00000000000;1415.00000000000;1479.00000000000;1565.00000000000;1645.00000000000;1718.00000000000;1756.00000000000;1791.00000000000;1799.00000000000;1836.00000000000;1855.00000000000;1896.00000000000;1898.00000000000;1905.00000000000;1923.00000000000;1883.00000000000;1882.00000000000;1854.00000000000;1847.00000000000;1832.00000000000;1830.00000000000;1780.00000000000;1804.00000000000;1784.00000000000;1813.00000000000;1798.00000000000;1805.00000000000;1784.00000000000;1788.00000000000;1798.00000000000;1816.00000000000;1836.00000000000;1835.00000000000;1858.00000000000;1861.00000000000;1854.00000000000;1857.00000000000;1846.00000000000;1868.00000000000;1859.00000000000;1857.00000000000;1852.00000000000;1858.00000000000;1840.00000000000;1834.00000000000;1838.00000000000;1826.00000000000;1820.00000000000
Accel Z : 1894.00000000000;1921.00000000000;1921.00000000000;1907.00000000000;1910.00000000000;1926.00000000000;1915.00000000000;1922.00000000000;1920.00000000000;1913.00000000000;1915.00000000000;1911.00000000000;1917.00000000000;1896.00000000000;1915.00000000000;1928.00000000000;1915.00000000000;1914.00000000000;1923.00000000000;1918.00000000000;1912.00000000000;1935.00000000000;1916.00000000000;1912.00000000000;1904.00000000000;1906.00000000000;1906.00000000000;1910.00000000000;1904.00000000000;1905.00000000000;1890.00000000000;1898.00000000000;1913.00000000000;1923.00000000000;1926.00000000000;1926.00000000000;1918.00000000000;1928.00000000000;1930.00000000000;1935.00000000000;1911.00000000000;1917.00000000000;1945.00000000000;1931.00000000000;1922.00000000000;1938.00000000000;1930.00000000000;1908.00000000000;1909.00000000000;1958.00000000000;1942.00000000000;1992.00000000000;2059.00000000000;2117.00000000000;2158.00000000000;2192.00000000000;2244.00000000000;2254.00000000000;2216.00000000000;2162.00000000000;2088.00000000000;2040.00000000000;1962.00000000000;1805.00000000000;1842.00000000000;1913.00000000000;1936.00000000000;1883.00000000000;1725.00000000000;1779.00000000000;1826.00000000000;1842.00000000000;1882.00000000000;1965.00000000000;1986.00000000000;1986.00000000000;1995.00000000000;1972.00000000000;1960.00000000000;1953.00000000000;1935.00000000000;1896.00000000000;1846.00000000000;1912.00000000000;1970.00000000000;1943.00000000000;1929.00000000000;1892.00000000000;1869.00000000000;1859.00000000000;1859.00000000000;1865.00000000000;1827.00000000000;1837.00000000000;1821.00000000000;1899.00000000000;1958.00000000000;2070.00000000000;2097.00000000000;2048.00000000000;2102.00000000000;2232.00000000000;2278.00000000000;2235.00000000000;2157.00000000000;2100.00000000000;2086.00000000000;2076.00000000000;2006.00000000000;1967.00000000000;1927.00000000000;1895.00000000000;1889.00000000000;1846.00000000000;1866.00000000000;1867.00000000000;1876.00000000000;1887.00000000000;1922.00000000000;1911.00000000000;1936.00000000000;1957.00000000000;1988.00000000000;1970.00000000000;1972.00000000000;1974.00000000000;1991.00000000000;1953.00000000000;1957.00000000000;1947.00000000000;1949.00000000000;1949.00000000000;1931.00000000000;1906.00000000000;1911.00000000000;1953.00000000000;1914.00000000000;1931.00000000000;1929.00000000000;1944.00000000000;1959.00000000000;1950.00000000000;1946.00000000000;1970.00000000000;1969.00000000000;1943.00000000000;1956.00000000000;1963.00000000000;1953.00000000000;1965.00000000000
Gyro X : 2802.00000000000;2845.00000000000;2831.00000000000;2818.00000000000;2823.00000000000;2828.00000000000;2821.00000000000;2803.00000000000;2833.00000000000;2807.00000000000;2842.00000000000;2851.00000000000;2809.00000000000;2838.00000000000;2836.00000000000;2806.00000000000;2825.00000000000;2821.00000000000;2831.00000000000;2809.00000000000;2802.00000000000;2818.00000000000;2821.00000000000;2814.00000000000;2821.00000000000;2813.00000000000;2819.00000000000;2814.00000000000;2822.00000000000;2822.00000000000;2826.00000000000;2841.00000000000;2820.00000000000;2843.00000000000;2827.00000000000;2811.00000000000;2825.00000000000;2820.00000000000;2821.00000000000;2813.00000000000;2814.00000000000;2815.00000000000;2814.00000000000;2828.00000000000;2804.00000000000;2813.00000000000;2816.00000000000;2797.00000000000;2784.00000000000;2792.00000000000;2804.00000000000;2825.00000000000;2863.00000000000;2890.00000000000;2827.00000000000;2743.00000000000;2726.00000000000;2739.00000000000;2748.00000000000;2729.00000000000;2840.00000000000;3080.00000000000;3028.00000000000;2773.00000000000;2621.00000000000;2717.00000000000;2835.00000000000;2886.00000000000;2800.00000000000;2738.00000000000;2775.00000000000;2688.00000000000;2639.00000000000;2645.00000000000;2592.00000000000;2561.00000000000;2538.00000000000;2600.00000000000;2684.00000000000;2711.00000000000;2740.00000000000;2766.00000000000;2726.00000000000;2724.00000000000;2739.00000000000;2808.00000000000;2815.00000000000;2833.00000000000;2879.00000000000;2888.00000000000;2860.00000000000;2900.00000000000;2811.00000000000;2730.00000000000;2835.00000000000;2787.00000000000;2697.00000000000;2690.00000000000;2598.00000000000;2671.00000000000;2874.00000000000;2997.00000000000;3017.00000000000;2949.00000000000;2898.00000000000;2885.00000000000;2900.00000000000;2886.00000000000;2880.00000000000;2889.00000000000;2909.00000000000;2887.00000000000;2822.00000000000;2780.00000000000;2773.00000000000;2790.00000000000;2796.00000000000;2725.00000000000;2758.00000000000;2759.00000000000;2772.00000000000;2788.00000000000;2822.00000000000;2807.00000000000;2804.00000000000;2848.00000000000;2866.00000000000;2850.00000000000;2845.00000000000;2827.00000000000;2860.00000000000;2839.00000000000;2825.00000000000;2859.00000000000;2834.00000000000;2836.00000000000;2839.00000000000;2767.00000000000;2787.00000000000;2786.00000000000;2762.00000000000;2777.00000000000;2809.00000000000;2809.00000000000;2802.00000000000;2820.00000000000;2840.00000000000;2810.00000000000;2814.00000000000;2838.00000000000
Gyro Y : 1803.00000000000;1825.00000000000;1825.00000000000;1810.00000000000;1839.00000000000;1799.00000000000;1804.00000000000;1814.00000000000;1822.00000000000;1826.00000000000;1813.00000000000;1806.00000000000;1827.00000000000;1823.00000000000;1815.00000000000;1818.00000000000;1798.00000000000;1812.00000000000;1811.00000000000;1801.00000000000;1805.00000000000;1821.00000000000;1797.00000000000;1797.00000000000;1801.00000000000;1788.00000000000;1802.00000000000;1787.00000000000;1797.00000000000;1796.00000000000;1801.00000000000;1805.00000000000;1804.00000000000;1840.00000000000;1815.00000000000;1827.00000000000;1810.00000000000;1835.00000000000;1833.00000000000;1849.00000000000;1813.00000000000;1844.00000000000;1835.00000000000;1815.00000000000;1824.00000000000;1802.00000000000;1793.00000000000;1792.00000000000;1751.00000000000;1689.00000000000;1627.00000000000;1509.00000000000;1454.00000000000;1376.00000000000;1263.00000000000;1193.00000000000;1166.00000000000;1190.00000000000;1198.00000000000;1237.00000000000;1324.00000000000;1420.00000000000;1482.00000000000;1534.00000000000;1920.00000000000;2349.00000000000;2676.00000000000;2850.00000000000;2963.00000000000;2906.00000000000;2805.00000000000;2558.00000000000;2392.00000000000;2363.00000000000;2328.00000000000;2299.00000000000;2315.00000000000;2328.00000000000;2276.00000000000;2300.00000000000;2321.00000000000;2400.00000000000;2384.00000000000;2321.00000000000;2365.00000000000;2384.00000000000;2408.00000000000;2339.00000000000;2385.00000000000;2373.00000000000;2293.00000000000;2190.00000000000;2090.00000000000;2039.00000000000;1942.00000000000;1707.00000000000;1469.00000000000;1366.00000000000;1183.00000000000;1065.00000000000;1109.00000000000;1183.00000000000;1310.00000000000;1415.00000000000;1479.00000000000;1565.00000000000;1645.00000000000;1718.00000000000;1756.00000000000;1791.00000000000;1799.00000000000;1836.00000000000;1855.00000000000;1896.00000000000;1898.00000000000;1905.00000000000;1923.00000000000;1883.00000000000;1882.00000000000;1854.00000000000;1847.00000000000;1832.00000000000;1830.00000000000;1780.00000000000;1804.00000000000;1784.00000000000;1813.00000000000;1798.00000000000;1805.00000000000;1784.00000000000;1788.00000000000;1798.00000000000;1816.00000000000;1836.00000000000;1835.00000000000;1858.00000000000;1861.00000000000;1854.00000000000;1857.00000000000;1846.00000000000;1868.00000000000;1859.00000000000;1857.00000000000;1852.00000000000;1858.00000000000;1840.00000000000;1834.00000000000;1838.00000000000;1826.00000000000;1820.00000000000
Gyro Z : 1894.00000000000;1921.00000000000;1921.00000000000;1907.00000000000;1910.00000000000;1926.00000000000;1915.00000000000;1922.00000000000;1920.00000000000;1913.00000000000;1915.00000000000;1911.00000000000;1917.00000000000;1896.00000000000;1915.00000000000;1928.00000000000;1915.00000000000;1914.00000000000;1923.00000000000;1918.00000000000;1912.00000000000;1935.00000000000;1916.00000000000;1912.00000000000;1904.00000000000;1906.00000000000;1906.00000000000;1910.00000000000;1904.00000000000;1905.00000000000;1890.00000000000;1898.00000000000;1913.00000000000;1923.00000000000;1926.00000000000;1926.00000000000;1918.00000000000;1928.00000000000;1930.00000000000;1935.00000000000;1911.00000000000;1917.00000000000;1945.00000000000;1931.00000000000;1922.00000000000;1938.00000000000;1930.00000000000;1908.00000000000;1909.00000000000;1958.00000000000;1942.00000000000;1992.00000000000;2059.00000000000;2117.00000000000;2158.00000000000;2192.00000000000;2244.00000000000;2254.00000000000;2216.00000000000;2162.00000000000;2088.00000000000;2040.00000000000;1962.00000000000;1805.00000000000;1842.00000000000;1913.00000000000;1936.00000000000;1883.00000000000;1725.00000000000;1779.00000000000;1826.00000000000;1842.00000000000;1882.00000000000;1965.00000000000;1986.00000000000;1986.00000000000;1995.00000000000;1972.00000000000;1960.00000000000;1953.00000000000;1935.00000000000;1896.00000000000;1846.00000000000;1912.00000000000;1970.00000000000;1943.00000000000;1929.00000000000;1892.00000000000;1869.00000000000;1859.00000000000;1859.00000000000;1865.00000000000;1827.00000000000;1837.00000000000;1821.00000000000;1899.00000000000;1958.00000000000;2070.00000000000;2097.00000000000;2048.00000000000;2102.00000000000;2232.00000000000;2278.00000000000;2235.00000000000;2157.00000000000;2100.00000000000;2086.00000000000;2076.00000000000;2006.00000000000;1967.00000000000;1927.00000000000;1895.00000000000;1889.00000000000;1846.00000000000;1866.00000000000;1867.00000000000;1876.00000000000;1887.00000000000;1922.00000000000;1911.00000000000;1936.00000000000;1957.00000000000;1988.00000000000;1970.00000000000;1972.00000000000;1974.00000000000;1991.00000000000;1953.00000000000;1957.00000000000;1947.00000000000;1949.00000000000;1949.00000000000;1931.00000000000;1906.00000000000;1911.00000000000;1953.00000000000;1914.00000000000;1931.00000000000;1929.00000000000;1944.00000000000;1959.00000000000;1950.00000000000;1946.00000000000;1970.00000000000;1969.00000000000;1943.00000000000;1956.00000000000;1963.00000000000;1953.00000000000;1965.00000000000
COMMAND 1 SAMPLE 1
Accel X : 2816.00000000000;2806.00000000000;2816.00000000000;2821.00000000000;2806.00000000000;2805.00000000000;2820.00000000000;2788.00000000000;2797.00000000000;2794.00000000000;2789.00000000000;2820.00000000000;2800.00000000000;2799.00000000000;2805.00000000000;2806.00000000000;2815.00000000000;2828.00000000000;2835.00000000000;2807.00000000000;2807.00000000000;2833.00000000000;2795.00000000000;2806.00000000000;2829.00000000000;2812.00000000000;2799.00000000000;2814.00000000000;2834.00000000000;2811.00000000000;2803.00000000000;2801.00000000000;2823.00000000000;2816.00000000000;2825.00000000000;2831.00000000000;2821.00000000000;2825.00000000000;2827.00000000000;2802.00000000000;2813.00000000000;2815.00000000000;2796.00000000000;2783.00000000000;2794.00000000000;2772.00000000000;2807.00000000000;2786.00000000000;2784.00000000000;2784.00000000000;2754.00000000000;2779.00000000000;2767.00000000000;2784.00000000000;2739.00000000000;2735.00000000000;2730.00000000000;2728.00000000000;2688.00000000000;2703.00000000000;2778.00000000000;2826.00000000000;2901.00000000000;3024.00000000000;3027.00000000000;2828.00000000000;2767.00000000000;2789.00000000000;2873.00000000000;2800.00000000000;2726.00000000000;2739.00000000000;2654.00000000000;2605.00000000000;2619.00000000000;2673.00000000000;2627.00000000000;2585.00000000000;2627.00000000000;2654.00000000000;2691.00000000000;2755.00000000000;2809.00000000000;2727.00000000000;2763.00000000000;2796.00000000000;2853.00000000000;2861.00000000000;2841.00000000000;2835.00000000000;2844.00000000000;2813.00000000000;2770.00000000000;2762.00000000000;2759.00000000000;2742.00000000000;2787.00000000000;2735.00000000000;2604.00000000000;2575.00000000000;2669.00000000000;2674.00000000000;2704.00000000000;2729.00000000000;2830.00000000000;2862.00000000000;2843.00000000000;2838.00000000000;2858.00000000000;2832.00000000000;2888.00000000000;2927.00000000000;2884.00000000000;2857.00000000000;2849.00000000000;2824.00000000000;2765.00000000000;2772.00000000000;2789.00000000000;2816.00000000000;2819.00000000000;2799.00000000000;2766.00000000000;2786.00000000000;2821.00000000000;2832.00000000000;2802.00000000000;2838.00000000000;2806.00000000000;2823.00000000000;2814.00000000000;2838.00000000000;2838.00000000000;2812.00000000000;2815.00000000000;2817.00000000000;2848.00000000000;2814.00000000000;2791.00000000000;2792.00000000000;2772.00000000000;2761.00000000000;2773.00000000000;2749.00000000000;2764.00000000000;2765.00000000000;2799.00000000000;2785.00000000000;2797.00000000000;2809.00000000000
Accel Y : 1799.00000000000;1836.00000000000;1810.00000000000;1814.00000000000;1799.00000000000;1808.00000000000;1820.00000000000;1827.00000000000;1820.00000000000;1794.00000000000;1782.00000000000;1802.00000000000;1823.00000000000;1799.00000000000;1831.00000000000;1815.00000000000;1815.00000000000;1793.00000000000;1791.00000000000;1802.00000000000;1813.00000000000;1798.00000000000;1801.00000000000;1813.00000000000;1807.00000000000;1816.00000000000;1822.00000000000;1795.00000000000;1787.00000000000;1789.00000000000;1798.00000000000;1817.00000000000;1805.00000000000;1807.00000000000;1799.00000000000;1803.00000000000;1799.00000000000;1803.00000000000;1795.00000000000;1772.00000000000;1774.00000000000;1764.00000000000;1734.00000000000;1725.00000000000;1730.00000000000;1711.00000000000;1708.00000000000;1708.00000000000;1680.00000000000;1664.00000000000;1626.00000000000;1591.00000000000;1515.00000000000;1468.00000000000;1425.00000000000;1361.00000000000;1293.00000000000;1281.00000000000;1255.00000000000;1279.00000000000;1313.00000000000;1437.00000000000;1521.00000000000;1604.00000000000;1648.00000000000;1893.00000000000;2173.00000000000;2491.00000000000;2631.00000000000;2633.00000000000;2676.00000000000;2653.00000000000;2551.00000000000;2441.00000000000;2369.00000000000;2315.00000000000;2305.00000000000;2265.00000000000;2252.00000000000;2199.00000000000;2255.00000000000;2308.00000000000;2303.00000000000;2339.00000000000;2363.00000000000;2345.00000000000;2321.00000000000;2443.00000000000;2386.00000000000;2166.00000000000;2130.00000000000;2178.00000000000;2103.00000000000;1925.00000000000;1795.00000000000;1748.00000000000;1799.00000000000;1611.00000000000;1328.00000000000;1206.00000000000;1255.00000000000;1257.00000000000;1276.00000000000;1266.00000000000;1328.00000000000;1386.00000000000;1430.00000000000;1482.00000000000;1551.00000000000;1622.00000000000;1673.00000000000;1715.00000000000;1746.00000000000;1746.00000000000;1750.00000000000;1769.00000000000;1794.00000000000;1806.00000000000;1831.00000000000;1824.00000000000;1807.00000000000;1814.00000000000;1791.00000000000;1805.00000000000;1786.00000000000;1787.00000000000;1790.00000000000;1787.00000000000;1784.00000000000;1768.00000000000;1768.00000000000;1768.00000000000;1804.00000000000;1781.00000000000;1773.00000000000;1797.00000000000;1808.00000000000;1811.00000000000;1815.00000000000;1789.00000000000;1811.00000000000;1810.00000000000;1791.00000000000;1794.00000000000;1800.00000000000;1809.00000000000;1795.00000000000;1783.00000000000;1793.00000000000;1788.00000000000
Accel Z : 1958.00000000000;1962.00000000000;1984.00000000000;1959.00000000000;1960.00000000000;1953.00000000000;1973.00000000000;1960.00000000000;1954.00000000000;1962.00000000000;1968.00000000000;1963.00000000000;1955.00000000000;1965.00000000000;1989.00000000000;1953.00000000000;1970.00000000000;1934.00000000000;1959.00000000000;1962.00000000000;1967.00000000000;1967.00000000000;1959.00000000000;1952.00000000000;1958.00000000000;1985.00000000000;1975.00000000000;1963.00000000000;1947.00000000000;1944.00000000000;1949.00000000000;1974.00000000000;1936.00000000000;1941.00000000000;1947.00000000000;1959.00000000000;1964.00000000000;1927.00000000000;1970.00000000000;1985.00000000000;1950.00000000000;1959.00000000000;1942.00000000000;1949.00000000000;1955.00000000000;1966.00000000000;1972.00000000000;1987.00000000000;2013.00000000000;2012.00000000000;2049.00000000000;2082.00000000000;2123.00000000000;2173.00000000000;2178.00000000000;2243.00000000000;2220.00000000000;2237.00000000000;2196.00000000000;2186.00000000000;2155.00000000000;2093.00000000000;2049.00000000000;1985.00000000000;1877.00000000000;1782.00000000000;1814.00000000000;1901.00000000000;1900.00000000000;1800.00000000000;1812.00000000000;1923.00000000000;1893.00000000000;1907.00000000000;1971.00000000000;1979.00000000000;1991.00000000000;2004.00000000000;1996.00000000000;2000.00000000000;2016.00000000000;1997.00000000000;1995.00000000000;1997.00000000000;2014.00000000000;1987.00000000000;1957.00000000000;1920.00000000000;1897.00000000000;1867.00000000000;1919.00000000000;1996.00000000000;1955.00000000000;1874.00000000000;1778.00000000000;1886.00000000000;2038.00000000000;2049.00000000000;1909.00000000000;1923.00000000000;2175.00000000000;2229.00000000000;2108.00000000000;2051.00000000000;2096.00000000000;2109.00000000000;2125.00000000000;2102.00000000000;2057.00000000000;2039.00000000000;2009.00000000000;1990.00000000000;1962.00000000000;1929.00000000000;1944.00000000000;1944.00000000000;1934.00000000000;1921.00000000000;1916.00000000000;1924.00000000000;1920.00000000000;1958.00000000000;1963.00000000000;1972.00000000000;1951.00000000000;1960.00000000000;1981.00000000000;1981.00000000000;1967.00000000000;1992.00000000000;1991.00000000000;1995.00000000000;1980.00000000000;1972.00000000000;1981.00000000000;1977.00000000000;1987.00000000000;1966.00000000000;1987.00000000000;1970.00000000000;1954.00000000000;1971.00000000000;1981.00000000000;1970.00000000000;1970.00000000000;1987.00000000000;1970.00000000000;1969.00000000000;1975.00000000000;1980.00000000000
Gyro X : 2816.00000000000;2806.00000000000;2816.00000000000;2821.00000000000;2806.00000000000;2805.00000000000;2820.00000000000;2788.00000000000;2797.00000000000;2794.00000000000;2789.00000000000;2820.00000000000;2800.00000000000;2799.00000000000;2805.00000000000;2806.00000000000;2815.00000000000;2828.00000000000;2835.00000000000;2807.00000000000;2807.00000000000;2833.00000000000;2795.00000000000;2806.00000000000;2829.00000000000;2812.00000000000;2799.00000000000;2814.00000000000;2834.00000000000;2811.00000000000;2803.00000000000;2801.00000000000;2823.00000000000;2816.00000000000;2825.00000000000;2831.00000000000;2821.00000000000;2825.00000000000;2827.00000000000;2802.00000000000;2813.00000000000;2815.00000000000;2796.00000000000;2783.00000000000;2794.00000000000;2772.00000000000;2807.00000000000;2786.00000000000;2784.00000000000;2784.00000000000;2754.00000000000;2779.00000000000;2767.00000000000;2784.00000000000;2739.00000000000;2735.00000000000;2730.00000000000;2728.00000000000;2688.00000000000;2703.00000000000;2778.00000000000;2826.00000000000;2901.00000000000;3024.00000000000;3027.00000000000;2828.00000000000;2767.00000000000;2789.00000000000;2873.00000000000;2800.00000000000;2726.00000000000;2739.00000000000;2654.00000000000;2605.00000000000;2619.00000000000;2673.00000000000;2627.00000000000;2585.00000000000;2627.00000000000;2654.00000000000;2691.00000000000;2755.00000000000;2809.00000000000;2727.00000000000;2763.00000000000;2796.00000000000;2853.00000000000;2861.00000000000;2841.00000000000;2835.00000000000;2844.00000000000;2813.00000000000;2770.00000000000;2762.00000000000;2759.00000000000;2742.00000000000;2787.00000000000;2735.00000000000;2604.00000000000;2575.00000000000;2669.00000000000;2674.00000000000;2704.00000000000;2729.00000000000;2830.00000000000;2862.00000000000;2843.00000000000;2838.00000000000;2858.00000000000;2832.00000000000;2888.00000000000;2927.00000000000;2884.00000000000;2857.00000000000;2849.00000000000;2824.00000000000;2765.00000000000;2772.00000000000;2789.00000000000;2816.00000000000;2819.00000000000;2799.00000000000;2766.00000000000;2786.00000000000;2821.00000000000;2832.00000000000;2802.00000000000;2838.00000000000;2806.00000000000;2823.00000000000;2814.00000000000;2838.00000000000;2838.00000000000;2812.00000000000;2815.00000000000;2817.00000000000;2848.00000000000;2814.00000000000;2791.00000000000;2792.00000000000;2772.00000000000;2761.00000000000;2773.00000000000;2749.00000000000;2764.00000000000;2765.00000000000;2799.00000000000;2785.00000000000;2797.00000000000;2809.00000000000
Gyro Y : 1799.00000000000;1836.00000000000;1810.00000000000;1814.00000000000;1799.00000000000;1808.00000000000;1820.00000000000;1827.00000000000;1820.00000000000;1794.00000000000;1782.00000000000;1802.00000000000;1823.00000000000;1799.00000000000;1831.00000000000;1815.00000000000;1815.00000000000;1793.00000000000;1791.00000000000;1802.00000000000;1813.00000000000;1798.00000000000;1801.00000000000;1813.00000000000;1807.00000000000;1816.00000000000;1822.00000000000;1795.00000000000;1787.00000000000;1789.00000000000;1798.00000000000;1817.00000000000;1805.00000000000;1807.00000000000;1799.00000000000;1803.00000000000;1799.00000000000;1803.00000000000;1795.00000000000;1772.00000000000;1774.00000000000;1764.00000000000;1734.00000000000;1725.00000000000;1730.00000000000;1711.00000000000;1708.00000000000;1708.00000000000;1680.00000000000;1664.00000000000;1626.00000000000;1591.00000000000;1515.00000000000;1468.00000000000;1425.00000000000;1361.00000000000;1293.00000000000;1281.00000000000;1255.00000000000;1279.00000000000;1313.00000000000;1437.00000000000;1521.00000000000;1604.00000000000;1648.00000000000;1893.00000000000;2173.00000000000;2491.00000000000;2631.00000000000;2633.00000000000;2676.00000000000;2653.00000000000;2551.00000000000;2441.00000000000;2369.00000000000;2315.00000000000;2305.00000000000;2265.00000000000;2252.00000000000;2199.00000000000;2255.00000000000;2308.00000000000;2303.00000000000;2339.00000000000;2363.00000000000;2345.00000000000;2321.00000000000;2443.00000000000;2386.00000000000;2166.00000000000;2130.00000000000;2178.00000000000;2103.00000000000;1925.00000000000;1795.00000000000;1748.00000000000;1799.00000000000;1611.00000000000;1328.00000000000;1206.00000000000;1255.00000000000;1257.00000000000;1276.00000000000;1266.00000000000;1328.00000000000;1386.00000000000;1430.00000000000;1482.00000000000;1551.00000000000;1622.00000000000;1673.00000000000;1715.00000000000;1746.00000000000;1746.00000000000;1750.00000000000;1769.00000000000;1794.00000000000;1806.00000000000;1831.00000000000;1824.00000000000;1807.00000000000;1814.00000000000;1791.00000000000;1805.00000000000;1786.00000000000;1787.00000000000;1790.00000000000;1787.00000000000;1784.00000000000;1768.00000000000;1768.00000000000;1768.00000000000;1804.00000000000;1781.00000000000;1773.00000000000;1797.00000000000;1808.00000000000;1811.00000000000;1815.00000000000;1789.00000000000;1811.00000000000;1810.00000000000;1791.00000000000;1794.00000000000;1800.00000000000;1809.00000000000;1795.00000000000;1783.00000000000;1793.00000000000;1788.00000000000
Gyro Z : 1958.00000000000;1962.00000000000;1984.00000000000;1959.00000000000;1960.00000000000;1953.00000000000;1973.00000000000;1960.00000000000;1954.00000000000;1962.00000000000;1968.00000000000;1963.00000000000;1955.00000000000;1965.00000000000;1989.00000000000;1953.00000000000;1970.00000000000;1934.00000000000;1959.00000000000;1962.00000000000;1967.00000000000;1967.00000000000;1959.00000000000;1952.00000000000;1958.00000000000;1985.00000000000;1975.00000000000;1963.00000000000;1947.00000000000;1944.00000000000;1949.00000000000;1974.00000000000;1936.00000000000;1941.00000000000;1947.00000000000;1959.00000000000;1964.00000000000;1927.00000000000;1970.00000000000;1985.00000000000;1950.00000000000;1959.00000000000;1942.00000000000;1949.00000000000;1955.00000000000;1966.00000000000;1972.00000000000;1987.00000000000;2013.00000000000;2012.00000000000;2049.00000000000;2082.00000000000;2123.00000000000;2173.00000000000;2178.00000000000;2243.00000000000;2220.00000000000;2237.00000000000;2196.00000000000;2186.00000000000;2155.00000000000;2093.00000000000;2049.00000000000;1985.00000000000;1877.00000000000;1782.00000000000;1814.00000000000;1901.00000000000;1900.00000000000;1800.00000000000;1812.00000000000;1923.00000000000;1893.00000000000;1907.00000000000;1971.00000000000;1979.00000000000;1991.00000000000;2004.00000000000;1996.00000000000;2000.00000000000;2016.00000000000;1997.00000000000;1995.00000000000;1997.00000000000;2014.00000000000;1987.00000000000;1957.00000000000;1920.00000000000;1897.00000000000;1867.00000000000;1919.00000000000;1996.00000000000;1955.00000000000;1874.00000000000;1778.00000000000;1886.00000000000;2038.00000000000;2049.00000000000;1909.00000000000;1923.00000000000;2175.00000000000;2229.00000000000;2108.00000000000;2051.00000000000;2096.00000000000;2109.00000000000;2125.00000000000;2102.00000000000;2057.00000000000;2039.00000000000;2009.00000000000;1990.00000000000;1962.00000000000;1929.00000000000;1944.00000000000;1944.00000000000;1934.00000000000;1921.00000000000;1916.00000000000;1924.00000000000;1920.00000000000;1958.00000000000;1963.00000000000;1972.00000000000;1951.00000000000;1960.00000000000;1981.00000000000;1981.00000000000;1967.00000000000;1992.00000000000;1991.00000000000;1995.00000000000;1980.00000000000;1972.00000000000;1981.00000000000;1977.00000000000;1987.00000000000;1966.00000000000;1987.00000000000;1970.00000000000;1954.00000000000;1971.00000000000;1981.00000000000;1970.00000000000;1970.00000000000;1987.00000000000;1970.00000000000;1969.00000000000;1975.00000000000;1980.00000000000
COMMAND 2 SAMPLE 1
Accel X : 2800.00000000000;2800.00000000000;2795.00000000000;2760.00000000000;2765.00000000000;2794.00000000000;2794.00000000000;2784.00000000000;2805.00000000000;2785.00000000000;2766.00000000000;2761.00000000000;2792.00000000000;2794.00000000000;2789.00000000000;2791.00000000000;2765.00000000000;2794.00000000000;2794.00000000000;2792.00000000000;2810.00000000000;2784.00000000000;2768.00000000000;2791.00000000000;2771.00000000000;2783.00000000000;2768.00000000000;2787.00000000000;2770.00000000000;2777.00000000000;2790.00000000000;2789.00000000000;2797.00000000000;2775.00000000000;2801.00000000000;2766.00000000000;2800.00000000000;2770.00000000000;2776.00000000000;2771.00000000000;2766.00000000000;2777.00000000000;2798.00000000000;2795.00000000000;2787.00000000000;2809.00000000000;2798.00000000000;2783.00000000000;2795.00000000000;2795.00000000000;2784.00000000000;2762.00000000000;2765.00000000000;2752.00000000000;2723.00000000000;2643.00000000000;2661.00000000000;2674.00000000000;2759.00000000000;2880.00000000000;2967.00000000000;3064.00000000000;3120.00000000000;3149.00000000000;3144.00000000000;3026.00000000000;2916.00000000000;2840.00000000000;2789.00000000000;2746.00000000000;2659.00000000000;2539.00000000000;2437.00000000000;2434.00000000000;2331.00000000000;2195.00000000000;2115.00000000000;2051.00000000000;2023.00000000000;1857.00000000000;1843.00000000000;1916.00000000000;2084.00000000000;2147.00000000000;2199.00000000000;2214.00000000000;2290.00000000000;2348.00000000000;2387.00000000000;2387.00000000000;2381.00000000000;2319.00000000000;2324.00000000000;2287.00000000000;2307.00000000000;2363.00000000000;2401.00000000000;2485.00000000000;2483.00000000000;2525.00000000000;2583.00000000000;2544.00000000000;2610.00000000000;2708.00000000000;2803.00000000000;2808.00000000000;2715.00000000000;2659.00000000000;2770.00000000000;2771.00000000000;2659.00000000000;2616.00000000000;2660.00000000000;2713.00000000000;2688.00000000000;2730.00000000000;2786.00000000000;2799.00000000000;2804.00000000000;2775.00000000000;2778.00000000000;2799.00000000000;2815.00000000000;2803.00000000000;2804.00000000000;2798.00000000000;2784.00000000000;2800.00000000000;2782.00000000000;2780.00000000000;2781.00000000000;2798.00000000000;2801.00000000000;2798.00000000000;2785.00000000000;2769.00000000000;2753.00000000000;2774.00000000000;2808.00000000000;2807.00000000000;2772.00000000000;2756.00000000000;2796.00000000000;2794.00000000000;2796.00000000000;2793.00000000000;2810.00000000000;2766.00000000000;2796.00000000000;2778.00000000000
Accel Y : 1864.00000000000;1884.00000000000;1887.00000000000;1867.00000000000;1866.00000000000;1860.00000000000;1854.00000000000;1854.00000000000;1874.00000000000;1863.00000000000;1859.00000000000;1873.00000000000;1866.00000000000;1873.00000000000;1881.00000000000;1878.00000000000;1875.00000000000;1889.00000000000;1865.00000000000;1869.00000000000;1871.00000000000;1890.00000000000;1877.00000000000;1874.00000000000;1863.00000000000;1883.00000000000;1881.00000000000;1882.00000000000;1853.00000000000;1893.00000000000;1855.00000000000;1892.00000000000;1893.00000000000;1881.00000000000;1881.00000000000;1885.00000000000;1846.00000000000;1873.00000000000;1866.00000000000;1871.00000000000;1880.00000000000;1876.00000000000;1871.00000000000;1867.00000000000;1851.00000000000;1883.00000000000;1883.00000000000;1874.00000000000;1861.00000000000;1877.00000000000;1853.00000000000;1817.00000000000;1831.00000000000;1755.00000000000;1712.00000000000;1703.00000000000;1749.00000000000;1839.00000000000;1924.00000000000;2036.00000000000;2140.00000000000;2209.00000000000;2262.00000000000;2259.00000000000;2280.00000000000;2287.00000000000;2239.00000000000;2198.00000000000;2162.00000000000;2117.00000000000;2101.00000000000;2055.00000000000;1979.00000000000;1909.00000000000;1813.00000000000;1715.00000000000;1680.00000000000;1646.00000000000;1622.00000000000;1577.00000000000;1551.00000000000;1527.00000000000;1472.00000000000;1427.00000000000;1422.00000000000;1401.00000000000;1369.00000000000;1354.00000000000;1349.00000000000;1354.00000000000;1363.00000000000;1395.00000000000;1402.00000000000;1437.00000000000;1477.00000000000;1515.00000000000;1549.00000000000;1594.00000000000;1622.00000000000;1690.00000000000;1787.00000000000;1790.00000000000;1852.00000000000;1906.00000000000;1938.00000000000;1946.00000000000;1956.00000000000;1969.00000000000;2028.00000000000;2075.00000000000;2000.00000000000;2020.00000000000;2081.00000000000;2056.00000000000;2078.00000000000;2034.00000000000;2021.00000000000;1991.00000000000;1982.00000000000;1953.00000000000;1963.00000000000;1957.00000000000;1950.00000000000;1944.00000000000;1943.00000000000;1941.00000000000;1918.00000000000;1943.00000000000;1927.00000000000;1923.00000000000;1942.00000000000;1938.00000000000;1950.00000000000;1955.00000000000;1919.00000000000;1954.00000000000;1949.00000000000;1940.00000000000;1946.00000000000;1945.00000000000;1927.00000000000;1917.00000000000;1950.00000000000;1912.00000000000;1930.00000000000;1942.00000000000;1915.00000000000;1929.00000000000;1946.00000000000;1920.00000000000
Accel Z : 2070.00000000000;2068.00000000000;2078.00000000000;2048.00000000000;2067.00000000000;2055.00000000000;2046.00000000000;2041.00000000000;2079.00000000000;2044.00000000000;2061.00000000000;2062.00000000000;2052.00000000000;2050.00000000000;2071.00000000000;2070.00000000000;2087.00000000000;2073.00000000000;2049.00000000000;2074.00000000000;2072.00000000000;2062.00000000000;2070.00000000000;2060.00000000000;2059.00000000000;2063.00000000000;2065.00000000000;2058.00000000000;2073.00000000000;2058.00000000000;2072.00000000000;2065.00000000000;2064.00000000000;2064.00000000000;2078.00000000000;2058.00000000000;2075.00000000000;2071.00000000000;2050.00000000000;2054.00000000000;2070.00000000000;2036.00000000000;2072.00000000000;2078.00000000000;2049.00000000000;2064.00000000000;2034.00000000000;2055.00000000000;2057.00000000000;2062.00000000000;2071.00000000000;2063.00000000000;2081.00000000000;2093.00000000000;2144.00000000000;2230.00000000000;2379.00000000000;2485.00000000000;2548.00000000000;2575.00000000000;2551.00000000000;2480.00000000000;2427.00000000000;2342.00000000000;2182.00000000000;2084.00000000000;1999.00000000000;1902.00000000000;1839.00000000000;1731.00000000000;1695.00000000000;1627.00000000000;1427.00000000000;1257.00000000000;1005.00000000000;845.000000000000;755.000000000000;672.000000000000;665.000000000000;571.000000000000;515.000000000000;514.000000000000;590.000000000000;699.000000000000;772.000000000000;820.000000000000;872.000000000000;871.000000000000;836.000000000000;816.000000000000;768.000000000000;680.000000000000;650.000000000000;666.000000000000;694.000000000000;777.000000000000;866.000000000000;951.000000000000;1023.00000000000;1149.00000000000;1296.00000000000;1358.00000000000;1446.00000000000;1596.00000000000;1807.00000000000;1839.00000000000;1813.00000000000;1792.00000000000;1984.00000000000;2139.00000000000;2121.00000000000;2164.00000000000;2308.00000000000;2357.00000000000;2334.00000000000;2410.00000000000;2407.00000000000;2420.00000000000;2381.00000000000;2359.00000000000;2336.00000000000;2309.00000000000;2280.00000000000;2246.00000000000;2237.00000000000;2203.00000000000;2157.00000000000;2154.00000000000;2115.00000000000;2126.00000000000;2092.00000000000;2096.00000000000;2051.00000000000;2066.00000000000;2073.00000000000;2079.00000000000;2057.00000000000;2047.00000000000;2059.00000000000;2070.00000000000;2054.00000000000;2066.00000000000;2062.00000000000;2058.00000000000;2080.00000000000;2099.00000000000;2081.00000000000;2079.00000000000;2093.00000000000;2060.00000000000
Gyro X : 2800.00000000000;2800.00000000000;2795.00000000000;2760.00000000000;2765.00000000000;2794.00000000000;2794.00000000000;2784.00000000000;2805.00000000000;2785.00000000000;2766.00000000000;2761.00000000000;2792.00000000000;2794.00000000000;2789.00000000000;2791.00000000000;2765.00000000000;2794.00000000000;2794.00000000000;2792.00000000000;2810.00000000000;2784.00000000000;2768.00000000000;2791.00000000000;2771.00000000000;2783.00000000000;2768.00000000000;2787.00000000000;2770.00000000000;2777.00000000000;2790.00000000000;2789.00000000000;2797.00000000000;2775.00000000000;2801.00000000000;2766.00000000000;2800.00000000000;2770.00000000000;2776.00000000000;2771.00000000000;2766.00000000000;2777.00000000000;2798.00000000000;2795.00000000000;2787.00000000000;2809.00000000000;2798.00000000000;2783.00000000000;2795.00000000000;2795.00000000000;2784.00000000000;2762.00000000000;2765.00000000000;2752.00000000000;2723.00000000000;2643.00000000000;2661.00000000000;2674.00000000000;2759.00000000000;2880.00000000000;2967.00000000000;3064.00000000000;3120.00000000000;3149.00000000000;3144.00000000000;3026.00000000000;2916.00000000000;2840.00000000000;2789.00000000000;2746.00000000000;2659.00000000000;2539.00000000000;2437.00000000000;2434.00000000000;2331.00000000000;2195.00000000000;2115.00000000000;2051.00000000000;2023.00000000000;1857.00000000000;1843.00000000000;1916.00000000000;2084.00000000000;2147.00000000000;2199.00000000000;2214.00000000000;2290.00000000000;2348.00000000000;2387.00000000000;2387.00000000000;2381.00000000000;2319.00000000000;2324.00000000000;2287.00000000000;2307.00000000000;2363.00000000000;2401.00000000000;2485.00000000000;2483.00000000000;2525.00000000000;2583.00000000000;2544.00000000000;2610.00000000000;2708.00000000000;2803.00000000000;2808.00000000000;2715.00000000000;2659.00000000000;2770.00000000000;2771.00000000000;2659.00000000000;2616.00000000000;2660.00000000000;2713.00000000000;2688.00000000000;2730.00000000000;2786.00000000000;2799.00000000000;2804.00000000000;2775.00000000000;2778.00000000000;2799.00000000000;2815.00000000000;2803.00000000000;2804.00000000000;2798.00000000000;2784.00000000000;2800.00000000000;2782.00000000000;2780.00000000000;2781.00000000000;2798.00000000000;2801.00000000000;2798.00000000000;2785.00000000000;2769.00000000000;2753.00000000000;2774.00000000000;2808.00000000000;2807.00000000000;2772.00000000000;2756.00000000000;2796.00000000000;2794.00000000000;2796.00000000000;2793.00000000000;2810.00000000000;2766.00000000000;2796.00000000000;2778.00000000000
Gyro Y : 1864.00000000000;1884.00000000000;1887.00000000000;1867.00000000000;1866.00000000000;1860.00000000000;1854.00000000000;1854.00000000000;1874.00000000000;1863.00000000000;1859.00000000000;1873.00000000000;1866.00000000000;1873.00000000000;1881.00000000000;1878.00000000000;1875.00000000000;1889.00000000000;1865.00000000000;1869.00000000000;1871.00000000000;1890.00000000000;1877.00000000000;1874.00000000000;1863.00000000000;1883.00000000000;1881.00000000000;1882.00000000000;1853.00000000000;1893.00000000000;1855.00000000000;1892.00000000000;1893.00000000000;1881.00000000000;1881.00000000000;1885.00000000000;1846.00000000000;1873.00000000000;1866.00000000000;1871.00000000000;1880.00000000000;1876.00000000000;1871.00000000000;1867.00000000000;1851.00000000000;1883.00000000000;1883.00000000000;1874.00000000000;1861.00000000000;1877.00000000000;1853.00000000000;1817.00000000000;1831.00000000000;1755.00000000000;1712.00000000000;1703.00000000000;1749.00000000000;1839.00000000000;1924.00000000000;2036.00000000000;2140.00000000000;2209.00000000000;2262.00000000000;2259.00000000000;2280.00000000000;2287.00000000000;2239.00000000000;2198.00000000000;2162.00000000000;2117.00000000000;2101.00000000000;2055.00000000000;1979.00000000000;1909.00000000000;1813.00000000000;1715.00000000000;1680.00000000000;1646.00000000000;1622.00000000000;1577.00000000000;1551.00000000000;1527.00000000000;1472.00000000000;1427.00000000000;1422.00000000000;1401.00000000000;1369.00000000000;1354.00000000000;1349.00000000000;1354.00000000000;1363.00000000000;1395.00000000000;1402.00000000000;1437.00000000000;1477.00000000000;1515.00000000000;1549.00000000000;1594.00000000000;1622.00000000000;1690.00000000000;1787.00000000000;1790.00000000000;1852.00000000000;1906.00000000000;1938.00000000000;1946.00000000000;1956.00000000000;1969.00000000000;2028.00000000000;2075.00000000000;2000.00000000000;2020.00000000000;2081.00000000000;2056.00000000000;2078.00000000000;2034.00000000000;2021.00000000000;1991.00000000000;1982.00000000000;1953.00000000000;1963.00000000000;1957.00000000000;1950.00000000000;1944.00000000000;1943.00000000000;1941.00000000000;1918.00000000000;1943.00000000000;1927.00000000000;1923.00000000000;1942.00000000000;1938.00000000000;1950.00000000000;1955.00000000000;1919.00000000000;1954.00000000000;1949.00000000000;1940.00000000000;1946.00000000000;1945.00000000000;1927.00000000000;1917.00000000000;1950.00000000000;1912.00000000000;1930.00000000000;1942.00000000000;1915.00000000000;1929.00000000000;1946.00000000000;1920.00000000000
Gyro Z : 2070.00000000000;2068.00000000000;2078.00000000000;2048.00000000000;2067.00000000000;2055.00000000000;2046.00000000000;2041.00000000000;2079.00000000000;2044.00000000000;2061.00000000000;2062.00000000000;2052.00000000000;2050.00000000000;2071.00000000000;2070.00000000000;2087.00000000000;2073.00000000000;2049.00000000000;2074.00000000000;2072.00000000000;2062.00000000000;2070.00000000000;2060.00000000000;2059.00000000000;2063.00000000000;2065.00000000000;2058.00000000000;2073.00000000000;2058.00000000000;2072.00000000000;2065.00000000000;2064.00000000000;2064.00000000000;2078.00000000000;2058.00000000000;2075.00000000000;2071.00000000000;2050.00000000000;2054.00000000000;2070.00000000000;2036.00000000000;2072.00000000000;2078.00000000000;2049.00000000000;2064.00000000000;2034.00000000000;2055.00000000000;2057.00000000000;2062.00000000000;2071.00000000000;2063.00000000000;2081.00000000000;2093.00000000000;2144.00000000000;2230.00000000000;2379.00000000000;2485.00000000000;2548.00000000000;2575.00000000000;2551.00000000000;2480.00000000000;2427.00000000000;2342.00000000000;2182.00000000000;2084.00000000000;1999.00000000000;1902.00000000000;1839.00000000000;1731.00000000000;1695.00000000000;1627.00000000000;1427.00000000000;1257.00000000000;1005.00000000000;845.000000000000;755.000000000000;672.000000000000;665.000000000000;571.000000000000;515.000000000000;514.000000000000;590.000000000000;699.000000000000;772.000000000000;820.000000000000;872.000000000000;871.000000000000;836.000000000000;816.000000000000;768.000000000000;680.000000000000;650.000000000000;666.000000000000;694.000000000000;777.000000000000;866.000000000000;951.000000000000;1023.00000000000;1149.00000000000;1296.00000000000;1358.00000000000;1446.00000000000;1596.00000000000;1807.00000000000;1839.00000000000;1813.00000000000;1792.00000000000;1984.00000000000;2139.00000000000;2121.00000000000;2164.00000000000;2308.00000000000;2357.00000000000;2334.00000000000;2410.00000000000;2407.00000000000;2420.00000000000;2381.00000000000;2359.00000000000;2336.00000000000;2309.00000000000;2280.00000000000;2246.00000000000;2237.00000000000;2203.00000000000;2157.00000000000;2154.00000000000;2115.00000000000;2126.00000000000;2092.00000000000;2096.00000000000;2051.00000000000;2066.00000000000;2073.00000000000;2079.00000000000;2057.00000000000;2047.00000000000;2059.00000000000;2070.00000000000;2054.00000000000;2066.00000000000;2062.00000000000;2058.00000000000;2080.00000000000;2099.00000000000;2081.00000000000;2079.00000000000;2093.00000000000;2060.00000000000
COMMAND 2 SAMPLE 1
Accel X : 2808.00000000000;2803.00000000000;2805.00000000000;2789.00000000000;2781.00000000000;2809.00000000000;2798.00000000000;2794.00000000000;2808.00000000000;2789.00000000000;2799.00000000000;2784.00000000000;2799.00000000000;2777.00000000000;2800.00000000000;2800.00000000000;2795.00000000000;2799.00000000000;2794.00000000000;2796.00000000000;2809.00000000000;2798.00000000000;2786.00000000000;2776.00000000000;2802.00000000000;2802.00000000000;2799.00000000000;2816.00000000000;2803.00000000000;2787.00000000000;2771.00000000000;2779.00000000000;2776.00000000000;2776.00000000000;2807.00000000000;2796.00000000000;2795.00000000000;2800.00000000000;2804.00000000000;2814.00000000000;2810.00000000000;2814.00000000000;2796.00000000000;2787.00000000000;2794.00000000000;2781.00000000000;2808.00000000000;2815.00000000000;2785.00000000000;2738.00000000000;2718.00000000000;2831.00000000000;2966.00000000000;3051.00000000000;3006.00000000000;2930.00000000000;2903.00000000000;2907.00000000000;2931.00000000000;2896.00000000000;2774.00000000000;2702.00000000000;2868.00000000000;2962.00000000000;2863.00000000000;2720.00000000000;2622.00000000000;2596.00000000000;2405.00000000000;2250.00000000000;2183.00000000000;2000.00000000000;1971.00000000000;1901.00000000000;1894.00000000000;1918.00000000000;1985.00000000000;2023.00000000000;2084.00000000000;2141.00000000000;2178.00000000000;2220.00000000000;2235.00000000000;2281.00000000000;2433.00000000000;2463.00000000000;2457.00000000000;2558.00000000000;2687.00000000000;2810.00000000000;2732.00000000000;2501.00000000000;2560.00000000000;2739.00000000000;2808.00000000000;2793.00000000000;2810.00000000000;2835.00000000000;2813.00000000000;2751.00000000000;2626.00000000000;2633.00000000000;2699.00000000000;2802.00000000000;2858.00000000000;2908.00000000000;2853.00000000000;2781.00000000000;2763.00000000000;2781.00000000000;2791.00000000000;2799.00000000000;2781.00000000000;2785.00000000000;2760.00000000000;2781.00000000000;2791.00000000000;2834.00000000000;2801.00000000000;2801.00000000000;2792.00000000000;2789.00000000000;2806.00000000000;2812.00000000000;2783.00000000000;2791.00000000000;2805.00000000000;2806.00000000000;2795.00000000000;2821.00000000000;2780.00000000000;2798.00000000000;2807.00000000000;2821.00000000000;2793.00000000000;2799.00000000000;2806.00000000000;2791.00000000000;2814.00000000000;2789.00000000000;2805.00000000000;2790.00000000000;2786.00000000000;2790.00000000000;2798.00000000000;2778.00000000000;2795.00000000000;2786.00000000000;2806.00000000000;2833.00000000000
Accel Y : 1979.00000000000;1952.00000000000;1957.00000000000;1951.00000000000;1955.00000000000;1971.00000000000;1943.00000000000;1954.00000000000;1968.00000000000;1950.00000000000;1967.00000000000;1966.00000000000;1958.00000000000;1959.00000000000;1935.00000000000;1961.00000000000;1967.00000000000;1966.00000000000;1951.00000000000;1962.00000000000;1970.00000000000;1957.00000000000;1959.00000000000;1958.00000000000;1945.00000000000;1983.00000000000;1961.00000000000;1966.00000000000;1962.00000000000;1991.00000000000;1975.00000000000;1982.00000000000;1965.00000000000;1949.00000000000;1958.00000000000;1951.00000000000;1944.00000000000;1956.00000000000;1958.00000000000;1932.00000000000;1939.00000000000;1940.00000000000;1957.00000000000;1961.00000000000;1933.00000000000;1915.00000000000;1919.00000000000;1901.00000000000;1910.00000000000;1911.00000000000;1923.00000000000;1968.00000000000;2042.00000000000;2106.00000000000;2101.00000000000;2116.00000000000;2153.00000000000;2174.00000000000;2127.00000000000;2119.00000000000;2102.00000000000;2091.00000000000;2063.00000000000;2020.00000000000;2025.00000000000;1996.00000000000;1955.00000000000;1946.00000000000;1886.00000000000;1831.00000000000;1798.00000000000;1764.00000000000;1703.00000000000;1648.00000000000;1597.00000000000;1535.00000000000;1520.00000000000;1485.00000000000;1469.00000000000;1458.00000000000;1446.00000000000;1445.00000000000;1462.00000000000;1485.00000000000;1515.00000000000;1558.00000000000;1592.00000000000;1638.00000000000;1655.00000000000;1727.00000000000;1758.00000000000;1791.00000000000;1871.00000000000;1940.00000000000;2031.00000000000;1980.00000000000;1998.00000000000;2085.00000000000;2123.00000000000;2119.00000000000;2134.00000000000;2138.00000000000;2101.00000000000;2105.00000000000;2081.00000000000;2073.00000000000;2051.00000000000;2030.00000000000;2022.00000000000;2032.00000000000;2032.00000000000;2028.00000000000;1999.00000000000;1994.00000000000;2007.00000000000;1991.00000000000;1988.00000000000;1976.00000000000;1979.00000000000;1959.00000000000;1968.00000000000;1947.00000000000;1952.00000000000;1969.00000000000;1919.00000000000;1951.00000000000;1940.00000000000;1935.00000000000;1931.00000000000;1920.00000000000;1940.00000000000;1947.00000000000;1956.00000000000;1943.00000000000;1947.00000000000;1953.00000000000;1954.00000000000;1955.00000000000;1959.00000000000;1931.00000000000;1939.00000000000;1948.00000000000;1946.00000000000;1975.00000000000;1960.00000000000;1931.00000000000;1907.00000000000;1939.00000000000;1931.00000000000;1925.00000000000
Accel Z : 2082.00000000000;2069.00000000000;2068.00000000000;2073.00000000000;2074.00000000000;2082.00000000000;2073.00000000000;2079.00000000000;2081.00000000000;2073.00000000000;2071.00000000000;2073.00000000000;2081.00000000000;2075.00000000000;2070.00000000000;2082.00000000000;2071.00000000000;2082.00000000000;2083.00000000000;2073.00000000000;2083.00000000000;2070.00000000000;2055.00000000000;2063.00000000000;2082.00000000000;2073.00000000000;2070.00000000000;2069.00000000000;2083.00000000000;2058.00000000000;2064.00000000000;2053.00000000000;2058.00000000000;2050.00000000000;2070.00000000000;2065.00000000000;2054.00000000000;2075.00000000000;2063.00000000000;2058.00000000000;2069.00000000000;2066.00000000000;2059.00000000000;2052.00000000000;2026.00000000000;2082.00000000000;2071.00000000000;2092.00000000000;2079.00000000000;2121.00000000000;2175.00000000000;2250.00000000000;2340.00000000000;2380.00000000000;2372.00000000000;2411.00000000000;2443.00000000000;2431.00000000000;2328.00000000000;2210.00000000000;2109.00000000000;1988.00000000000;1855.00000000000;1688.00000000000;1604.00000000000;1474.00000000000;1315.00000000000;1222.00000000000;1025.00000000000;848.000000000000;737.000000000000;646.000000000000;630.000000000000;609.000000000000;544.000000000000;592.000000000000;609.000000000000;665.000000000000;728.000000000000;773.000000000000;743.000000000000;745.000000000000;745.000000000000;735.000000000000;817.000000000000;929.000000000000;943.000000000000;946.000000000000;1061.00000000000;1199.00000000000;1304.00000000000;1343.00000000000;1427.00000000000;1662.00000000000;1832.00000000000;1812.00000000000;1871.00000000000;1977.00000000000;2012.00000000000;2140.00000000000;2295.00000000000;2392.00000000000;2366.00000000000;2411.00000000000;2434.00000000000;2388.00000000000;2383.00000000000;2342.00000000000;2318.00000000000;2283.00000000000;2275.00000000000;2238.00000000000;2196.00000000000;2166.00000000000;2164.00000000000;2132.00000000000;2103.00000000000;2085.00000000000;2097.00000000000;2078.00000000000;2074.00000000000;2048.00000000000;2030.00000000000;2061.00000000000;2060.00000000000;2051.00000000000;2062.00000000000;2045.00000000000;2037.00000000000;2048.00000000000;2047.00000000000;2046.00000000000;2048.00000000000;2034.00000000000;2026.00000000000;2043.00000000000;2059.00000000000;2059.00000000000;2035.00000000000;2041.00000000000;2047.00000000000;2072.00000000000;2051.00000000000;2042.00000000000;2057.00000000000;2033.00000000000;2057.00000000000;2024.00000000000;2050.00000000000;2050.00000000000
Gyro X : 2808.00000000000;2803.00000000000;2805.00000000000;2789.00000000000;2781.00000000000;2809.00000000000;2798.00000000000;2794.00000000000;2808.00000000000;2789.00000000000;2799.00000000000;2784.00000000000;2799.00000000000;2777.00000000000;2800.00000000000;2800.00000000000;2795.00000000000;2799.00000000000;2794.00000000000;2796.00000000000;2809.00000000000;2798.00000000000;2786.00000000000;2776.00000000000;2802.00000000000;2802.00000000000;2799.00000000000;2816.00000000000;2803.00000000000;2787.00000000000;2771.00000000000;2779.00000000000;2776.00000000000;2776.00000000000;2807.00000000000;2796.00000000000;2795.00000000000;2800.00000000000;2804.00000000000;2814.00000000000;2810.00000000000;2814.00000000000;2796.00000000000;2787.00000000000;2794.00000000000;2781.00000000000;2808.00000000000;2815.00000000000;2785.00000000000;2738.00000000000;2718.00000000000;2831.00000000000;2966.00000000000;3051.00000000000;3006.00000000000;2930.00000000000;2903.00000000000;2907.00000000000;2931.00000000000;2896.00000000000;2774.00000000000;2702.00000000000;2868.00000000000;2962.00000000000;2863.00000000000;2720.00000000000;2622.00000000000;2596.00000000000;2405.00000000000;2250.00000000000;2183.00000000000;2000.00000000000;1971.00000000000;1901.00000000000;1894.00000000000;1918.00000000000;1985.00000000000;2023.00000000000;2084.00000000000;2141.00000000000;2178.00000000000;2220.00000000000;2235.00000000000;2281.00000000000;2433.00000000000;2463.00000000000;2457.00000000000;2558.00000000000;2687.00000000000;2810.00000000000;2732.00000000000;2501.00000000000;2560.00000000000;2739.00000000000;2808.00000000000;2793.00000000000;2810.00000000000;2835.00000000000;2813.00000000000;2751.00000000000;2626.00000000000;2633.00000000000;2699.00000000000;2802.00000000000;2858.00000000000;2908.00000000000;2853.00000000000;2781.00000000000;2763.00000000000;2781.00000000000;2791.00000000000;2799.00000000000;2781.00000000000;2785.00000000000;2760.00000000000;2781.00000000000;2791.00000000000;2834.00000000000;2801.00000000000;2801.00000000000;2792.00000000000;2789.00000000000;2806.00000000000;2812.00000000000;2783.00000000000;2791.00000000000;2805.00000000000;2806.00000000000;2795.00000000000;2821.00000000000;2780.00000000000;2798.00000000000;2807.00000000000;2821.00000000000;2793.00000000000;2799.00000000000;2806.00000000000;2791.00000000000;2814.00000000000;2789.00000000000;2805.00000000000;2790.00000000000;2786.00000000000;2790.00000000000;2798.00000000000;2778.00000000000;2795.00000000000;2786.00000000000;2806.00000000000;2833.00000000000
Gyro Y : 1979.00000000000;1952.00000000000;1957.00000000000;1951.00000000000;1955.00000000000;1971.00000000000;1943.00000000000;1954.00000000000;1968.00000000000;1950.00000000000;1967.00000000000;1966.00000000000;1958.00000000000;1959.00000000000;1935.00000000000;1961.00000000000;1967.00000000000;1966.00000000000;1951.00000000000;1962.00000000000;1970.00000000000;1957.00000000000;1959.00000000000;1958.00000000000;1945.00000000000;1983.00000000000;1961.00000000000;1966.00000000000;1962.00000000000;1991.00000000000;1975.00000000000;1982.00000000000;1965.00000000000;1949.00000000000;1958.00000000000;1951.00000000000;1944.00000000000;1956.00000000000;1958.00000000000;1932.00000000000;1939.00000000000;1940.00000000000;1957.00000000000;1961.00000000000;1933.00000000000;1915.00000000000;1919.00000000000;1901.00000000000;1910.00000000000;1911.00000000000;1923.00000000000;1968.00000000000;2042.00000000000;2106.00000000000;2101.00000000000;2116.00000000000;2153.00000000000;2174.00000000000;2127.00000000000;2119.00000000000;2102.00000000000;2091.00000000000;2063.00000000000;2020.00000000000;2025.00000000000;1996.00000000000;1955.00000000000;1946.00000000000;1886.00000000000;1831.00000000000;1798.00000000000;1764.00000000000;1703.00000000000;1648.00000000000;1597.00000000000;1535.00000000000;1520.00000000000;1485.00000000000;1469.00000000000;1458.00000000000;1446.00000000000;1445.00000000000;1462.00000000000;1485.00000000000;1515.00000000000;1558.00000000000;1592.00000000000;1638.00000000000;1655.00000000000;1727.00000000000;1758.00000000000;1791.00000000000;1871.00000000000;1940.00000000000;2031.00000000000;1980.00000000000;1998.00000000000;2085.00000000000;2123.00000000000;2119.00000000000;2134.00000000000;2138.00000000000;2101.00000000000;2105.00000000000;2081.00000000000;2073.00000000000;2051.00000000000;2030.00000000000;2022.00000000000;2032.00000000000;2032.00000000000;2028.00000000000;1999.00000000000;1994.00000000000;2007.00000000000;1991.00000000000;1988.00000000000;1976.00000000000;1979.00000000000;1959.00000000000;1968.00000000000;1947.00000000000;1952.00000000000;1969.00000000000;1919.00000000000;1951.00000000000;1940.00000000000;1935.00000000000;1931.00000000000;1920.00000000000;1940.00000000000;1947.00000000000;1956.00000000000;1943.00000000000;1947.00000000000;1953.00000000000;1954.00000000000;1955.00000000000;1959.00000000000;1931.00000000000;1939.00000000000;1948.00000000000;1946.00000000000;1975.00000000000;1960.00000000000;1931.00000000000;1907.00000000000;1939.00000000000;1931.00000000000;1925.00000000000
Gyro Z : 2082.00000000000;2069.00000000000;2068.00000000000;2073.00000000000;2074.00000000000;2082.00000000000;2073.00000000000;2079.00000000000;2081.00000000000;2073.00000000000;2071.00000000000;2073.00000000000;2081.00000000000;2075.00000000000;2070.00000000000;2082.00000000000;2071.00000000000;2082.00000000000;2083.00000000000;2073.00000000000;2083.00000000000;2070.00000000000;2055.00000000000;2063.00000000000;2082.00000000000;2073.00000000000;2070.00000000000;2069.00000000000;2083.00000000000;2058.00000000000;2064.00000000000;2053.00000000000;2058.00000000000;2050.00000000000;2070.00000000000;2065.00000000000;2054.00000000000;2075.00000000000;2063.00000000000;2058.00000000000;2069.00000000000;2066.00000000000;2059.00000000000;2052.00000000000;2026.00000000000;2082.00000000000;2071.00000000000;2092.00000000000;2079.00000000000;2121.00000000000;2175.00000000000;2250.00000000000;2340.00000000000;2380.00000000000;2372.00000000000;2411.00000000000;2443.00000000000;2431.00000000000;2328.00000000000;2210.00000000000;2109.00000000000;1988.00000000000;1855.00000000000;1688.00000000000;1604.00000000000;1474.00000000000;1315.00000000000;1222.00000000000;1025.00000000000;848.000000000000;737.000000000000;646.000000000000;630.000000000000;609.000000000000;544.000000000000;592.000000000000;609.000000000000;665.000000000000;728.000000000000;773.000000000000;743.000000000000;745.000000000000;745.000000000000;735.000000000000;817.000000000000;929.000000000000;943.000000000000;946.000000000000;1061.00000000000;1199.00000000000;1304.00000000000;1343.00000000000;1427.00000000000;1662.00000000000;1832.00000000000;1812.00000000000;1871.00000000000;1977.00000000000;2012.00000000000;2140.00000000000;2295.00000000000;2392.00000000000;2366.00000000000;2411.00000000000;2434.00000000000;2388.00000000000;2383.00000000000;2342.00000000000;2318.00000000000;2283.00000000000;2275.00000000000;2238.00000000000;2196.00000000000;2166.00000000000;2164.00000000000;2132.00000000000;2103.00000000000;2085.00000000000;2097.00000000000;2078.00000000000;2074.00000000000;2048.00000000000;2030.00000000000;2061.00000000000;2060.00000000000;2051.00000000000;2062.00000000000;2045.00000000000;2037.00000000000;2048.00000000000;2047.00000000000;2046.00000000000;2048.00000000000;2034.00000000000;2026.00000000000;2043.00000000000;2059.00000000000;2059.00000000000;2035.00000000000;2041.00000000000;2047.00000000000;2072.00000000000;2051.00000000000;2042.00000000000;2057.00000000000;2033.00000000000;2057.00000000000;2024.00000000000;2050.00000000000;2050.00000000000
COMMAND 2 SAMPLE 1
Accel X : 2795.00000000000;2796.00000000000;2772.00000000000;2801.00000000000;2804.00000000000;2804.00000000000;2803.00000000000;2798.00000000000;2807.00000000000;2782.00000000000;2785.00000000000;2795.00000000000;2807.00000000000;2797.00000000000;2795.00000000000;2800.00000000000;2798.00000000000;2800.00000000000;2808.00000000000;2808.00000000000;2805.00000000000;2812.00000000000;2809.00000000000;2804.00000000000;2789.00000000000;2801.00000000000;2806.00000000000;2804.00000000000;2787.00000000000;2794.00000000000;2814.00000000000;2809.00000000000;2798.00000000000;2806.00000000000;2812.00000000000;2804.00000000000;2794.00000000000;2801.00000000000;2795.00000000000;2809.00000000000;2802.00000000000;2792.00000000000;2789.00000000000;2788.00000000000;2806.00000000000;2793.00000000000;2808.00000000000;2800.00000000000;2792.00000000000;2805.00000000000;2794.00000000000;2785.00000000000;2788.00000000000;2810.00000000000;2823.00000000000;2783.00000000000;2754.00000000000;2708.00000000000;2656.00000000000;2777.00000000000;2859.00000000000;2855.00000000000;2888.00000000000;2964.00000000000;3050.00000000000;3038.00000000000;3038.00000000000;2970.00000000000;2983.00000000000;2884.00000000000;2799.00000000000;2661.00000000000;2591.00000000000;2487.00000000000;2313.00000000000;2199.00000000000;2116.00000000000;1968.00000000000;1840.00000000000;1863.00000000000;1911.00000000000;1948.00000000000;1993.00000000000;2084.00000000000;2153.00000000000;2193.00000000000;2258.00000000000;2262.00000000000;2304.00000000000;2324.00000000000;2337.00000000000;2351.00000000000;2305.00000000000;2305.00000000000;2271.00000000000;2257.00000000000;2247.00000000000;2341.00000000000;2397.00000000000;2527.00000000000;2569.00000000000;2472.00000000000;2489.00000000000;2614.00000000000;2717.00000000000;2755.00000000000;2681.00000000000;2593.00000000000;2605.00000000000;2732.00000000000;2854.00000000000;2935.00000000000;2992.00000000000;2986.00000000000;2945.00000000000;2891.00000000000;2853.00000000000;2847.00000000000;2874.00000000000;2896.00000000000;2911.00000000000;2872.00000000000;2877.00000000000;2853.00000000000;2837.00000000000;2842.00000000000;2840.00000000000;2831.00000000000;2834.00000000000;2804.00000000000;2800.00000000000;2816.00000000000;2818.00000000000;2813.00000000000;2794.00000000000;2824.00000000000;2813.00000000000;2838.00000000000;2843.00000000000;2835.00000000000;2853.00000000000;2852.00000000000;2851.00000000000;2842.00000000000;2858.00000000000;2851.00000000000;2849.00000000000;2835.00000000000;2859.00000000000;2848.00000000000
Accel Y : 1981.00000000000;1986.00000000000;1963.00000000000;1979.00000000000;1969.00000000000;1969.00000000000;1988.00000000000;1968.00000000000;1987.00000000000;1974.00000000000;1968.00000000000;1958.00000000000;1962.00000000000;1972.00000000000;1951.00000000000;1979.00000000000;1978.00000000000;1970.00000000000;1975.00000000000;1970.00000000000;1965.00000000000;1970.00000000000;1967.00000000000;1953.00000000000;1984.00000000000;1981.00000000000;1983.00000000000;1974.00000000000;1987.00000000000;1971.00000000000;1980.00000000000;1960.00000000000;1975.00000000000;1972.00000000000;1969.00000000000;1974.00000000000;1961.00000000000;1968.00000000000;1969.00000000000;1966.00000000000;1961.00000000000;1953.00000000000;1959.00000000000;1981.00000000000;1985.00000000000;1963.00000000000;1968.00000000000;1959.00000000000;1952.00000000000;1951.00000000000;1946.00000000000;1948.00000000000;1910.00000000000;1923.00000000000;1903.00000000000;1903.00000000000;1920.00000000000;1907.00000000000;1957.00000000000;2026.00000000000;2089.00000000000;2096.00000000000;2153.00000000000;2171.00000000000;2166.00000000000;2130.00000000000;2121.00000000000;2130.00000000000;2096.00000000000;2103.00000000000;2083.00000000000;2032.00000000000;1969.00000000000;1975.00000000000;1865.00000000000;1860.00000000000;1847.00000000000;1813.00000000000;1806.00000000000;1757.00000000000;1729.00000000000;1655.00000000000;1621.00000000000;1587.00000000000;1533.00000000000;1474.00000000000;1451.00000000000;1447.00000000000;1446.00000000000;1457.00000000000;1437.00000000000;1459.00000000000;1464.00000000000;1494.00000000000;1506.00000000000;1536.00000000000;1578.00000000000;1614.00000000000;1660.00000000000;1725.00000000000;1755.00000000000;1810.00000000000;1861.00000000000;1932.00000000000;2011.00000000000;2035.00000000000;2007.00000000000;2080.00000000000;2183.00000000000;2243.00000000000;2223.00000000000;2167.00000000000;2131.00000000000;2104.00000000000;2064.00000000000;2056.00000000000;2063.00000000000;2048.00000000000;2025.00000000000;1990.00000000000;2016.00000000000;1985.00000000000;2007.00000000000;1983.00000000000;1967.00000000000;1992.00000000000;1981.00000000000;1984.00000000000;1969.00000000000;1979.00000000000;1969.00000000000;1967.00000000000;1950.00000000000;1932.00000000000;1931.00000000000;1961.00000000000;1930.00000000000;1939.00000000000;1937.00000000000;1941.00000000000;1942.00000000000;1934.00000000000;1946.00000000000;1949.00000000000;1931.00000000000;1919.00000000000;1911.00000000000;1953.00000000000;1952.00000000000;1919.00000000000
Accel Z : 2077.00000000000;2088.00000000000;2077.00000000000;2074.00000000000;2060.00000000000;2062.00000000000;2062.00000000000;2068.00000000000;2064.00000000000;2070.00000000000;2070.00000000000;2080.00000000000;2069.00000000000;2057.00000000000;2057.00000000000;2045.00000000000;2049.00000000000;2053.00000000000;2081.00000000000;2051.00000000000;2077.00000000000;2062.00000000000;2063.00000000000;2068.00000000000;2069.00000000000;2073.00000000000;2078.00000000000;2082.00000000000;2079.00000000000;2085.00000000000;2084.00000000000;2054.00000000000;2056.00000000000;2078.00000000000;2073.00000000000;2081.00000000000;2072.00000000000;2067.00000000000;2073.00000000000;2057.00000000000;2067.00000000000;2081.00000000000;2064.00000000000;2094.00000000000;2071.00000000000;2062.00000000000;2076.00000000000;2077.00000000000;2057.00000000000;2050.00000000000;2078.00000000000;2070.00000000000;2058.00000000000;2091.00000000000;2084.00000000000;2101.00000000000;2152.00000000000;2208.00000000000;2285.00000000000;2350.00000000000;2442.00000000000;2514.00000000000;2538.00000000000;2479.00000000000;2382.00000000000;2262.00000000000;2124.00000000000;2061.00000000000;1885.00000000000;1736.00000000000;1574.00000000000;1372.00000000000;1305.00000000000;1132.00000000000;947.000000000000;826.000000000000;764.000000000000;704.000000000000;638.000000000000;659.000000000000;632.000000000000;623.000000000000;719.000000000000;787.000000000000;848.000000000000;844.000000000000;857.000000000000;856.000000000000;819.000000000000;809.000000000000;775.000000000000;731.000000000000;637.000000000000;602.000000000000;588.000000000000;616.000000000000;704.000000000000;750.000000000000;871.000000000000;1031.00000000000;1092.00000000000;1255.00000000000;1394.00000000000;1517.00000000000;1739.00000000000;1829.00000000000;1762.00000000000;1844.00000000000;1989.00000000000;2186.00000000000;2303.00000000000;2290.00000000000;2290.00000000000;2331.00000000000;2337.00000000000;2310.00000000000;2295.00000000000;2277.00000000000;2226.00000000000;2173.00000000000;2136.00000000000;2127.00000000000;2077.00000000000;2077.00000000000;2036.00000000000;2005.00000000000;1997.00000000000;1976.00000000000;1958.00000000000;1947.00000000000;1950.00000000000;1940.00000000000;1918.00000000000;1923.00000000000;1911.00000000000;1923.00000000000;1933.00000000000;1911.00000000000;1899.00000000000;1900.00000000000;1922.00000000000;1921.00000000000;1927.00000000000;1954.00000000000;1935.00000000000;1929.00000000000;1948.00000000000;1939.00000000000;1943.00000000000;1935.00000000000
Gyro X : 2795.00000000000;2796.00000000000;2772.00000000000;2801.00000000000;2804.00000000000;2804.00000000000;2803.00000000000;2798.00000000000;2807.00000000000;2782.00000000000;2785.00000000000;2795.00000000000;2807.00000000000;2797.00000000000;2795.00000000000;2800.00000000000;2798.00000000000;2800.00000000000;2808.00000000000;2808.00000000000;2805.00000000000;2812.00000000000;2809.00000000000;2804.00000000000;2789.00000000000;2801.00000000000;2806.00000000000;2804.00000000000;2787.00000000000;2794.00000000000;2814.00000000000;2809.00000000000;2798.00000000000;2806.00000000000;2812.00000000000;2804.00000000000;2794.00000000000;2801.00000000000;2795.00000000000;2809.00000000000;2802.00000000000;2792.00000000000;2789.00000000000;2788.00000000000;2806.00000000000;2793.00000000000;2808.00000000000;2800.00000000000;2792.00000000000;2805.00000000000;2794.00000000000;2785.00000000000;2788.00000000000;2810.00000000000;2823.00000000000;2783.00000000000;2754.00000000000;2708.00000000000;2656.00000000000;2777.00000000000;2859.00000000000;2855.00000000000;2888.00000000000;2964.00000000000;3050.00000000000;3038.00000000000;3038.00000000000;2970.00000000000;2983.00000000000;2884.00000000000;2799.00000000000;2661.00000000000;2591.00000000000;2487.00000000000;2313.00000000000;2199.00000000000;2116.00000000000;1968.00000000000;1840.00000000000;1863.00000000000;1911.00000000000;1948.00000000000;1993.00000000000;2084.00000000000;2153.00000000000;2193.00000000000;2258.00000000000;2262.00000000000;2304.00000000000;2324.00000000000;2337.00000000000;2351.00000000000;2305.00000000000;2305.00000000000;2271.00000000000;2257.00000000000;2247.00000000000;2341.00000000000;2397.00000000000;2527.00000000000;2569.00000000000;2472.00000000000;2489.00000000000;2614.00000000000;2717.00000000000;2755.00000000000;2681.00000000000;2593.00000000000;2605.00000000000;2732.00000000000;2854.00000000000;2935.00000000000;2992.00000000000;2986.00000000000;2945.00000000000;2891.00000000000;2853.00000000000;2847.00000000000;2874.00000000000;2896.00000000000;2911.00000000000;2872.00000000000;2877.00000000000;2853.00000000000;2837.00000000000;2842.00000000000;2840.00000000000;2831.00000000000;2834.00000000000;2804.00000000000;2800.00000000000;2816.00000000000;2818.00000000000;2813.00000000000;2794.00000000000;2824.00000000000;2813.00000000000;2838.00000000000;2843.00000000000;2835.00000000000;2853.00000000000;2852.00000000000;2851.00000000000;2842.00000000000;2858.00000000000;2851.00000000000;2849.00000000000;2835.00000000000;2859.00000000000;2848.00000000000
