COMMAND 4 SAMPLE 1
Accel X : 966.000000000000;979.000000000000;997.000000000000;998.000000000000;1006.00000000000;1003.00000000000;1037.00000000000;1011.00000000000;1036.00000000000;1048.00000000000;995.000000000000;1008.00000000000;994.000000000000;1014.00000000000;1018.00000000000;1013.00000000000;968.000000000000;979.000000000000;984.000000000000;978.000000000000;1003.00000000000;994.000000000000;987.000000000000;981.000000000000;979.000000000000;968.000000000000;951.000000000000;955.000000000000;972.000000000000;950.000000000000;960.000000000000;931.000000000000;925.000000000000;894.000000000000;917.000000000000;904.000000000000;979.000000000000;1001.00000000000;934.000000000000;922.000000000000;936.000000000000;919.000000000000;1020.00000000000;1100.00000000000;1227.00000000000;1289.00000000000;1354.00000000000;1475.00000000000;1450.00000000000;1307.00000000000;1445.00000000000;1574.00000000000;1647.00000000000;1671.00000000000;1740.00000000000;1618.00000000000;1678.00000000000;1877.00000000000;1977.00000000000;2071.00000000000;1972.00000000000;1977.00000000000;1968.00000000000;2104.00000000000;2200.00000000000;2290.00000000000;2109.00000000000;1960.00000000000;2073.00000000000;2354.00000000000;2057.00000000000;1823.00000000000;1915.00000000000;2164.00000000000;2241.00000000000;2325.00000000000;2310.00000000000;2143.00000000000;2012.00000000000;2014.00000000000;2122.00000000000;2143.00000000000;2205.00000000000;2172.00000000000;2090.00000000000;2084.00000000000;2054.00000000000;2084.00000000000;2095.00000000000;2007.00000000000;1967.00000000000;2057.00000000000;2074.00000000000;1969.00000000000;1953.00000000000;1889.00000000000;1813.00000000000;1898.00000000000;1958.00000000000;1869.00000000000;1567.00000000000;1315.00000000000;1348.00000000000;1413.00000000000;1448.00000000000;1348.00000000000;1259.00000000000;1302.00000000000;1267.00000000000;1199.00000000000;1226.00000000000;1156.00000000000;1235.00000000000;1186.00000000000;1225.00000000000;1284.00000000000;1286.00000000000;1265.00000000000;1292.00000000000;1271.00000000000;1242.00000000000;1239.00000000000;1188.00000000000;1201.00000000000;1173.00000000000;1123.00000000000;1147.00000000000;1120.00000000000;1098.00000000000;1056.00000000000;1046.00000000000;1068.00000000000;1081.00000000000;1054.00000000000;1002.00000000000;987.000000000000;1026.00000000000;1022.00000000000;1017.00000000000;982.000000000000;958.000000000000;968.000000000000;1003.00000000000;1017.00000000000;1022.00000000000;994.000000000000;977.000000000000;995.000000000000;980.000000000000;996.000000000000
Accel Y : 2066.00000000000;2056.00000000000;2063.00000000000;2072.00000000000;2064.00000000000;2069.00000000000;2045.00000000000;2034.00000000000;2063.00000000000;2053.00000000000;2072.00000000000;2058.00000000000;2040.00000000000;2043.00000000000;2042.00000000000;2046.00000000000;2049.00000000000;2040.00000000000;2045.00000000000;2053.00000000000;2061.00000000000;2044.00000000000;2054.00000000000;2035.00000000000;2039.00000000000;2041.00000000000;2055.00000000000;2019.00000000000;2013.00000000000;2023.00000000000;1985.00000000000;2002.00000000000;2000.00000000000;1983.00000000000;1979.00000000000;1967.00000000000;1963.00000000000;1923.00000000000;1944.00000000000;1943.00000000000;1951.00000000000;1957.00000000000;1954.00000000000;1961.00000000000;1951.00000000000;1903.00000000000;1930.00000000000;1915.00000000000;1952.00000000000;2054.00000000000;2098.00000000000;2098.00000000000;2131.00000000000;2231.00000000000;2283.00000000000;2411.00000000000;2518.00000000000;2575.00000000000;2644.00000000000;2734.00000000000;2940.00000000000;3251.00000000000;3672.00000000000;3884.00000000000;4024.00000000000;4038.00000000000;3927.00000000000;3678.00000000000;3461.00000000000;3377.00000000000;3471.00000000000;3524.00000000000;3474.00000000000;3297.00000000000;3274.00000000000;3296.00000000000;3322.00000000000;3298.00000000000;3271.00000000000;3234.00000000000;3226.00000000000;3257.00000000000;3226.00000000000;3191.00000000000;3208.00000000000;3208.00000000000;3213.00000000000;3219.00000000000;3221.00000000000;3259.00000000000;3255.00000000000;3266.00000000000;3251.00000000000;3311.00000000000;3343.00000000000;3349.00000000000;3371.00000000000;3428.00000000000;3408.00000000000;3392.00000000000;3396.00000000000;3423.00000000000;3347.00000000000;3283.00000000000;3188.00000000000;3052.00000000000;2957.00000000000;2862.00000000000;2756.00000000000;2695.00000000000;2609.00000000000;2496.00000000000;2485.00000000000;2436.00000000000;2374.00000000000;2351.00000000000;2307.00000000000;2251.00000000000;2243.00000000000;2185.00000000000;2149.00000000000;2148.00000000000;2105.00000000000;2090.00000000000;2039.00000000000;2022.00000000000;2054.00000000000;2046.00000000000;2018.00000000000;2008.00000000000;2027.00000000000;2035.00000000000;2026.00000000000;2040.00000000000;2051.00000000000;2045.00000000000;2009.00000000000;2035.00000000000;2061.00000000000;2043.00000000000;2068.00000000000;2051.00000000000;2050.00000000000;2047.00000000000;2047.00000000000;2026.00000000000;2071.00000000000;2052.00000000000;2049.00000000000;2029.00000000000
Accel Z : 1649.00000000000;1673.00000000000;1668.00000000000;1666.00000000000;1667.00000000000;1672.00000000000;1642.00000000000;1669.00000000000;1654.00000000000;1646.00000000000;1656.00000000000;1630.00000000000;1665.00000000000;1646.00000000000;1666.00000000000;1659.00000000000;1646.00000000000;1639.00000000000;1657.00000000000;1658.00000000000;1670.00000000000;1658.00000000000;1678.00000000000;1678.00000000000;1665.00000000000;1678.00000000000;1677.00000000000;1663.00000000000;1637.00000000000;1660.00000000000;1685.00000000000;1681.00000000000;1659.00000000000;1700.00000000000;1669.00000000000;1667.00000000000;1745.00000000000;1745.00000000000;1743.00000000000;1725.00000000000;1727.00000000000;1719.00000000000;1753.00000000000;1822.00000000000;1833.00000000000;1814.00000000000;1855.00000000000;1839.00000000000;1819.00000000000;1795.00000000000;1837.00000000000;1821.00000000000;1806.00000000000;1807.00000000000;1832.00000000000;1815.00000000000;1847.00000000000;1872.00000000000;1867.00000000000;1865.00000000000;1782.00000000000;1979.00000000000;2270.00000000000;2392.00000000000;2285.00000000000;2093.00000000000;2019.00000000000;2029.00000000000;1943.00000000000;1803.00000000000;1836.00000000000;1867.00000000000;1867.00000000000;1869.00000000000;1929.00000000000;1902.00000000000;1851.00000000000;1819.00000000000;1816.00000000000;1835.00000000000;1808.00000000000;1851.00000000000;1823.00000000000;1797.00000000000;1815.00000000000;1799.00000000000;1779.00000000000;1806.00000000000;1823.00000000000;1808.00000000000;1818.00000000000;1746.00000000000;1774.00000000000;1809.00000000000;1837.00000000000;1798.00000000000;1824.00000000000;1868.00000000000;1896.00000000000;1862.00000000000;1835.00000000000;1845.00000000000;1900.00000000000;1916.00000000000;1925.00000000000;1821.00000000000;1852.00000000000;1849.00000000000;1795.00000000000;1795.00000000000;1742.00000000000;1680.00000000000;1655.00000000000;1612.00000000000;1644.00000000000;1628.00000000000;1645.00000000000;1630.00000000000;1602.00000000000;1586.00000000000;1623.00000000000;1644.00000000000;1644.00000000000;1616.00000000000;1610.00000000000;1574.00000000000;1602.00000000000;1645.00000000000;1633.00000000000;1635.00000000000;1637.00000000000;1612.00000000000;1664.00000000000;1675.00000000000;1662.00000000000;1667.00000000000;1710.00000000000;1681.00000000000;1688.00000000000;1677.00000000000;1678.00000000000;1660.00000000000;1679.00000000000;1676.00000000000;1697.00000000000;1687.00000000000;1671.00000000000;1665.00000000000;1699.00000000000;1690.00000000000
Gyro X : 966.000000000000;979.000000000000;997.000000000000;998.000000000000;1006.00000000000;1003.00000000000;1037.00000000000;1011.00000000000;1036.00000000000;1048.00000000000;995.000000000000;1008.00000000000;994.000000000000;1014.00000000000;1018.00000000000;1013.00000000000;968.000000000000;979.000000000000;984.000000000000;978.000000000000;1003.00000000000;994.000000000000;987.000000000000;981.000000000000;979.000000000000;968.000000000000;951.000000000000;955.000000000000;972.000000000000;950.000000000000;960.000000000000;931.000000000000;925.000000000000;894.000000000000;917.000000000000;904.000000000000;979.000000000000;1001.00000000000;934.000000000000;922.000000000000;936.000000000000;919.000000000000;1020.00000000000;1100.00000000000;1227.00000000000;1289.00000000000;1354.00000000000;1475.00000000000;1450.00000000000;1307.00000000000;1445.00000000000;1574.00000000000;1647.00000000000;1671.00000000000;1740.00000000000;1618.00000000000;1678.00000000000;1877.00000000000;1977.00000000000;2071.00000000000;1972.00000000000;1977.00000000000;1968.00000000000;2104.00000000000;2200.00000000000;2290.00000000000;2109.00000000000;1960.00000000000;2073.00000000000;2354.00000000000;2057.00000000000;1823.00000000000;1915.00000000000;2164.00000000000;2241.00000000000;2325.00000000000;2310.00000000000;2143.00000000000;2012.00000000000;2014.00000000000;2122.00000000000;2143.00000000000;2205.00000000000;2172.00000000000;2090.00000000000;2084.00000000000;2054.00000000000;2084.00000000000;2095.00000000000;2007.00000000000;1967.00000000000;2057.00000000000;2074.00000000000;1969.00000000000;1953.00000000000;1889.00000000000;1813.00000000000;1898.00000000000;1958.00000000000;1869.00000000000;1567.00000000000;1315.00000000000;1348.00000000000;1413.00000000000;1448.00000000000;1348.00000000000;1259.00000000000;1302.00000000000;1267.00000000000;1199.00000000000;1226.00000000000;1156.00000000000;1235.00000000000;1186.00000000000;1225.00000000000;1284.00000000000;1286.00000000000;1265.00000000000;1292.00000000000;1271.00000000000;1242.00000000000;1239.00000000000;1188.00000000000;1201.00000000000;1173.00000000000;1123.00000000000;1147.00000000000;1120.00000000000;1098.00000000000;1056.00000000000;1046.00000000000;1068.00000000000;1081.00000000000;1054.00000000000;1002.00000000000;987.000000000000;1026.00000000000;1022.00000000000;1017.00000000000;982.000000000000;958.000000000000;968.000000000000;1003.00000000000;1017.00000000000;1022.00000000000;994.000000000000;977.000000000000;995.000000000000;980.000000000000;996.000000000000
Gyro Y : 2066.00000000000;2056.00000000000;2063.00000000000;2072.00000000000;2064.00000000000;2069.00000000000;2045.00000000000;2034.00000000000;2063.00000000000;2053.00000000000;2072.00000000000;2058.00000000000;2040.00000000000;2043.00000000000;2042.00000000000;2046.00000000000;2049.00000000000;2040.00000000000;2045.00000000000;2053.00000000000;2061.00000000000;2044.00000000000;2054.00000000000;2035.00000000000;2039.00000000000;2041.00000000000;2055.00000000000;2019.00000000000;2013.00000000000;2023.00000000000;1985.00000000000;2002.00000000000;2000.00000000000;1983.00000000000;1979.00000000000;1967.00000000000;1963.00000000000;1923.00000000000;1944.00000000000;1943.00000000000;1951.00000000000;1957.00000000000;1954.00000000000;1961.00000000000;1951.00000000000;1903.00000000000;1930.00000000000;1915.00000000000;1952.00000000000;2054.00000000000;2098.00000000000;2098.00000000000;2131.00000000000;2231.00000000000;2283.00000000000;2411.00000000000;2518.00000000000;2575.00000000000;2644.00000000000;2734.00000000000;2940.00000000000;3251.00000000000;3672.00000000000;3884.00000000000;4024.00000000000;4038.00000000000;3927.00000000000;3678.00000000000;3461.00000000000;3377.00000000000;3471.00000000000;3524.00000000000;3474.00000000000;3297.00000000000;3274.00000000000;3296.00000000000;3322.00000000000;3298.00000000000;3271.00000000000;3234.00000000000;3226.00000000000;3257.00000000000;3226.00000000000;3191.00000000000;3208.00000000000;3208.00000000000;3213.00000000000;3219.00000000000;3221.00000000000;3259.00000000000;3255.00000000000;3266.00000000000;3251.00000000000;3311.00000000000;3343.00000000000;3349.00000000000;3371.00000000000;3428.00000000000;3408.00000000000;3392.00000000000;3396.00000000000;3423.00000000000;3347.00000000000;3283.00000000000;3188.00000000000;3052.00000000000;2957.00000000000;2862.00000000000;2756.00000000000;2695.00000000000;2609.00000000000;2496.00000000000;2485.00000000000;2436.00000000000;2374.00000000000;2351.00000000000;2307.00000000000;2251.00000000000;2243.00000000000;2185.00000000000;2149.00000000000;2148.00000000000;2105.00000000000;2090.00000000000;2039.00000000000;2022.00000000000;2054.00000000000;2046.00000000000;2018.00000000000;2008.00000000000;2027.00000000000;2035.00000000000;2026.00000000000;2040.00000000000;2051.00000000000;2045.00000000000;2009.00000000000;2035.00000000000;2061.00000000000;2043.00000000000;2068.00000000000;2051.00000000000;2050.00000000000;2047.00000000000;2047.00000000000;2026.00000000000;2071.00000000000;2052.00000000000;2049.00000000000;2029.00000000000
Gyro Z : 1649.00000000000;1673.00000000000;1668.00000000000;1666.00000000000;1667.00000000000;1672.00000000000;1642.00000000000;1669.00000000000;1654.00000000000;1646.00000000000;1656.00000000000;1630.00000000000;1665.00000000000;1646.00000000000;1666.00000000000;1659.00000000000;1646.00000000000;1639.00000000000;1657.00000000000;1658.00000000000;1670.00000000000;1658.00000000000;1678.00000000000;1678.00000000000;1665.00000000000;1678.00000000000;1677.00000000000;1663.00000000000;1637.00000000000;1660.00000000000;1685.00000000000;1681.00000000000;1659.00000000000;1700.00000000000;1669.00000000000;1667.00000000000;1745.00000000000;1745.00000000000;1743.00000000000;1725.00000000000;1727.00000000000;1719.00000000000;1753.00000000000;1822.00000000000;1833.00000000000;1814.00000000000;1855.00000000000;1839.00000000000;1819.00000000000;1795.00000000000;1837.00000000000;1821.00000000000;1806.00000000000;1807.00000000000;1832.00000000000;1815.00000000000;1847.00000000000;1872.00000000000;1867.00000000000;1865.00000000000;1782.00000000000;1979.00000000000;2270.00000000000;2392.00000000000;2285.00000000000;2093.00000000000;2019.00000000000;2029.00000000000;1943.00000000000;1803.00000000000;1836.00000000000;1867.00000000000;1867.00000000000;1869.00000000000;1929.00000000000;1902.00000000000;1851.00000000000;1819.00000000000;1816.00000000000;1835.00000000000;1808.00000000000;1851.00000000000;1823.00000000000;1797.00000000000;1815.00000000000;1799.00000000000;1779.00000000000;1806.00000000000;1823.00000000000;1808.00000000000;1818.00000000000;1746.00000000000;1774.00000000000;1809.00000000000;1837.00000000000;1798.00000000000;1824.00000000000;1868.00000000000;1896.00000000000;1862.00000000000;1835.00000000000;1845.00000000000;1900.00000000000;1916.00000000000;1925.00000000000;1821.00000000000;1852.00000000000;1849.00000000000;1795.00000000000;1795.00000000000;1742.00000000000;1680.00000000000;1655.00000000000;1612.00000000000;1644.00000000000;1628.00000000000;1645.00000000000;1630.00000000000;1602.00000000000;1586.00000000000;1623.00000000000;1644.00000000000;1644.00000000000;1616.00000000000;1610.00000000000;1574.00000000000;1602.00000000000;1645.00000000000;1633.00000000000;1635.00000000000;1637.00000000000;1612.00000000000;1664.00000000000;1675.00000000000;1662.00000000000;1667.00000000000;1710.00000000000;1681.00000000000;1688.00000000000;1677.00000000000;1678.00000000000;1660.00000000000;1679.00000000000;1676.00000000000;1697.00000000000;1687.00000000000;1671.00000000000;1665.00000000000;1699.00000000000;1690.00000000000
