COMMAND 3 SAMPLE 1
Accel X : 1003.00000000000;1021.00000000000;1017.00000000000;1010.00000000000;1006.00000000000;1005.00000000000;1028.00000000000;1018.00000000000;1009.00000000000;1010.00000000000;1016.00000000000;995.000000000000;996.000000000000;987.000000000000;1008.00000000000;1006.00000000000;1002.00000000000;991.000000000000;1000.00000000000;1002.00000000000;1004.00000000000;1008.00000000000;1017.00000000000;1045.00000000000;1023.00000000000;1019.00000000000;1009.00000000000;1004.00000000000;993.000000000000;996.000000000000;1005.00000000000;1002.00000000000;1006.00000000000;1013.00000000000;997.000000000000;1001.00000000000;992.000000000000;1006.00000000000;989.000000000000;1023.00000000000;985.000000000000;958.000000000000;948.000000000000;922.000000000000;920.000000000000;817.000000000000;645.000000000000;478.000000000000;412.000000000000;609.000000000000;673.000000000000;720.000000000000;604.000000000000;1025.00000000000;1230.00000000000;1445.00000000000;1571.00000000000;1632.00000000000;1488.00000000000;1509.00000000000;1597.00000000000;1717.00000000000;1708.00000000000;1688.00000000000;1716.00000000000;1858.00000000000;1893.00000000000;1789.00000000000;1945.00000000000;1901.00000000000;1930.00000000000;2053.00000000000;2093.00000000000;2121.00000000000;2175.00000000000;2225.00000000000;2240.00000000000;2184.00000000000;2179.00000000000;2144.00000000000;2099.00000000000;2118.00000000000;2134.00000000000;2045.00000000000;1940.00000000000;1984.00000000000;2043.00000000000;2008.00000000000;1917.00000000000;1880.00000000000;1885.00000000000;2151.00000000000;1967.00000000000;1869.00000000000;1816.00000000000;1832.00000000000;1870.00000000000;1979.00000000000;1931.00000000000;1722.00000000000;1601.00000000000;1697.00000000000;1727.00000000000;1418.00000000000;981.000000000000;941.000000000000;908.000000000000;76.0000000000000;12.0000000000000;12.0000000000000;12.0000000000000;12.0000000000000;13.0000000000000;20.0000000000000;20.0000000000000;315.000000000000;515.000000000000;610.000000000000;663.000000000000;720.000000000000;801.000000000000;762.000000000000;817.000000000000;865.000000000000;930.000000000000;977.000000000000;1058.00000000000;1015.00000000000;1000.00000000000;1031.00000000000;1007.00000000000;1058.00000000000;996.000000000000;1004.00000000000;971.000000000000;999.000000000000;1032.00000000000;1035.00000000000;1024.00000000000;996.000000000000;971.000000000000;978.000000000000;991.000000000000;980.000000000000;1021.00000000000;1024.00000000000;969.000000000000;961.000000000000;954.000000000000;974.000000000000
Accel Y : 2349.00000000000;2339.00000000000;2364.00000000000;2353.00000000000;2344.00000000000;2335.00000000000;2340.00000000000;2344.00000000000;2339.00000000000;2336.00000000000;2326.00000000000;2342.00000000000;2334.00000000000;2344.00000000000;2343.00000000000;2338.00000000000;2335.00000000000;2335.00000000000;2335.00000000000;2330.00000000000;2344.00000000000;2321.00000000000;2338.00000000000;2311.00000000000;2336.00000000000;2325.00000000000;2337.00000000000;2345.00000000000;2361.00000000000;2338.00000000000;2329.00000000000;2327.00000000000;2329.00000000000;2344.00000000000;2320.00000000000;2303.00000000000;2302.00000000000;2281.00000000000;2293.00000000000;2231.00000000000;2178.00000000000;2174.00000000000;2156.00000000000;2065.00000000000;1953.00000000000;1900.00000000000;1940.00000000000;1983.00000000000;1840.00000000000;1739.00000000000;1664.00000000000;1760.00000000000;1929.00000000000;2225.00000000000;2288.00000000000;2419.00000000000;2520.00000000000;2531.00000000000;2530.00000000000;2543.00000000000;2591.00000000000;2522.00000000000;2426.00000000000;2396.00000000000;2317.00000000000;2350.00000000000;2302.00000000000;2270.00000000000;2224.00000000000;2173.00000000000;2192.00000000000;2127.00000000000;2025.00000000000;1935.00000000000;1873.00000000000;1830.00000000000;1780.00000000000;1758.00000000000;1661.00000000000;1607.00000000000;1579.00000000000;1555.00000000000;1541.00000000000;1513.00000000000;1469.00000000000;1469.00000000000;1483.00000000000;1564.00000000000;1547.00000000000;1569.00000000000;1622.00000000000;1615.00000000000;1775.00000000000;1716.00000000000;1759.00000000000;1852.00000000000;1963.00000000000;2135.00000000000;2075.00000000000;1915.00000000000;2144.00000000000;2489.00000000000;2481.00000000000;2075.00000000000;1963.00000000000;2331.00000000000;2561.00000000000;1943.00000000000;1789.00000000000;2208.00000000000;2323.00000000000;2068.00000000000;1859.00000000000;1993.00000000000;2115.00000000000;2169.00000000000;2127.00000000000;2059.00000000000;2092.00000000000;2110.00000000000;2157.00000000000;2204.00000000000;2199.00000000000;2195.00000000000;2151.00000000000;2167.00000000000;2168.00000000000;2141.00000000000;2112.00000000000;2121.00000000000;2139.00000000000;2142.00000000000;2137.00000000000;2125.00000000000;2132.00000000000;2138.00000000000;2141.00000000000;2149.00000000000;2139.00000000000;2181.00000000000;2143.00000000000;2173.00000000000;2163.00000000000;2159.00000000000;2171.00000000000;2139.00000000000;2189.00000000000;2156.00000000000;2137.00000000000;2163.00000000000
Accel Z : 1899.00000000000;1915.00000000000;1892.00000000000;1883.00000000000;1901.00000000000;1893.00000000000;1891.00000000000;1899.00000000000;1861.00000000000;1874.00000000000;1886.00000000000;1906.00000000000;1889.00000000000;1894.00000000000;1905.00000000000;1885.00000000000;1898.00000000000;1891.00000000000;1883.00000000000;1887.00000000000;1879.00000000000;1884.00000000000;1887.00000000000;1893.00000000000;1886.00000000000;1895.00000000000;1872.00000000000;1889.00000000000;1881.00000000000;1894.00000000000;1859.00000000000;1885.00000000000;1900.00000000000;1889.00000000000;1865.00000000000;1876.00000000000;1889.00000000000;1869.00000000000;1879.00000000000;1877.00000000000;1832.00000000000;1803.00000000000;1772.00000000000;1703.00000000000;1614.00000000000;1598.00000000000;1370.00000000000;955.000000000000;639.000000000000;488.000000000000;251.000000000000;22.0000000000000;21.0000000000000;23.0000000000000;24.0000000000000;25.0000000000000;25.0000000000000;26.0000000000000;29.0000000000000;124.000000000000;284.000000000000;441.000000000000;581.000000000000;707.000000000000;859.000000000000;979.000000000000;1078.00000000000;1179.00000000000;1378.00000000000;1495.00000000000;1568.00000000000;1778.00000000000;2006.00000000000;2153.00000000000;2502.00000000000;2595.00000000000;2523.00000000000;2602.00000000000;2655.00000000000;2656.00000000000;2573.00000000000;2471.00000000000;2421.00000000000;2342.00000000000;2241.00000000000;2171.00000000000;2109.00000000000;2054.00000000000;2013.00000000000;1937.00000000000;1881.00000000000;1797.00000000000;1647.00000000000;1665.00000000000;1650.00000000000;1667.00000000000;1681.00000000000;1585.00000000000;1482.00000000000;1517.00000000000;1678.00000000000;1754.00000000000;1659.00000000000;1691.00000000000;1933.00000000000;2349.00000000000;2287.00000000000;1770.00000000000;1911.00000000000;2434.00000000000;2391.00000000000;2164.00000000000;2180.00000000000;2225.00000000000;2125.00000000000;2162.00000000000;2072.00000000000;1959.00000000000;1951.00000000000;2006.00000000000;2004.00000000000;1932.00000000000;1856.00000000000;1853.00000000000;1799.00000000000;1824.00000000000;1821.00000000000;1806.00000000000;1805.00000000000;1821.00000000000;1828.00000000000;1864.00000000000;1842.00000000000;1847.00000000000;1811.00000000000;1841.00000000000;1864.00000000000;1867.00000000000;1864.00000000000;1867.00000000000;1831.00000000000;1879.00000000000;1892.00000000000;1860.00000000000;1880.00000000000;1907.00000000000;1878.00000000000;1877.00000000000;1892.00000000000;1878.00000000000
Gyro X : 1003.00000000000;1021.00000000000;1017.00000000000;1010.00000000000;1006.00000000000;1005.00000000000;1028.00000000000;1018.00000000000;1009.00000000000;1010.00000000000;1016.00000000000;995.000000000000;996.000000000000;987.000000000000;1008.00000000000;1006.00000000000;1002.00000000000;991.000000000000;1000.00000000000;1002.00000000000;1004.00000000000;1008.00000000000;1017.00000000000;1045.00000000000;1023.00000000000;1019.00000000000;1009.00000000000;1004.00000000000;993.000000000000;996.000000000000;1005.00000000000;1002.00000000000;1006.00000000000;1013.00000000000;997.000000000000;1001.00000000000;992.000000000000;1006.00000000000;989.000000000000;1023.00000000000;985.000000000000;958.000000000000;948.000000000000;922.000000000000;920.000000000000;817.000000000000;645.000000000000;478.000000000000;412.000000000000;609.000000000000;673.000000000000;720.000000000000;604.000000000000;1025.00000000000;1230.00000000000;1445.00000000000;1571.00000000000;1632.00000000000;1488.00000000000;1509.00000000000;1597.00000000000;1717.00000000000;1708.00000000000;1688.00000000000;1716.00000000000;1858.00000000000;1893.00000000000;1789.00000000000;1945.00000000000;1901.00000000000;1930.00000000000;2053.00000000000;2093.00000000000;2121.00000000000;2175.00000000000;2225.00000000000;2240.00000000000;2184.00000000000;2179.00000000000;2144.00000000000;2099.00000000000;2118.00000000000;2134.00000000000;2045.00000000000;1940.00000000000;1984.00000000000;2043.00000000000;2008.00000000000;1917.00000000000;1880.00000000000;1885.00000000000;2151.00000000000;1967.00000000000;1869.00000000000;1816.00000000000;1832.00000000000;1870.00000000000;1979.00000000000;1931.00000000000;1722.00000000000;1601.00000000000;1697.00000000000;1727.00000000000;1418.00000000000;981.000000000000;941.000000000000;908.000000000000;76.0000000000000;12.0000000000000;12.0000000000000;12.0000000000000;12.0000000000000;13.0000000000000;20.0000000000000;20.0000000000000;315.000000000000;515.000000000000;610.000000000000;663.000000000000;720.000000000000;801.000000000000;762.000000000000;817.000000000000;865.000000000000;930.000000000000;977.000000000000;1058.00000000000;1015.00000000000;1000.00000000000;1031.00000000000;1007.00000000000;1058.00000000000;996.000000000000;1004.00000000000;971.000000000000;999.000000000000;1032.00000000000;1035.00000000000;1024.00000000000;996.000000000000;971.000000000000;978.000000000000;991.000000000000;980.000000000000;1021.00000000000;1024.00000000000;969.000000000000;961.000000000000;954.000000000000;974.000000000000
Gyro Y : 2349.00000000000;2339.00000000000;2364.00000000000;2353.00000000000;2344.00000000000;2335.00000000000;2340.00000000000;2344.00000000000;2339.00000000000;2336.00000000000;2326.00000000000;2342.00000000000;2334.00000000000;2344.00000000000;2343.00000000000;2338.00000000000;2335.00000000000;2335.00000000000;2335.00000000000;2330.00000000000;2344.00000000000;2321.00000000000;2338.00000000000;2311.00000000000;2336.00000000000;2325.00000000000;2337.00000000000;2345.00000000000;2361.00000000000;2338.00000000000;2329.00000000000;2327.00000000000;2329.00000000000;2344.00000000000;2320.00000000000;2303.00000000000;2302.00000000000;2281.00000000000;2293.00000000000;2231.00000000000;2178.00000000000;2174.00000000000;2156.00000000000;2065.00000000000;1953.00000000000;1900.00000000000;1940.00000000000;1983.00000000000;1840.00000000000;1739.00000000000;1664.00000000000;1760.00000000000;1929.00000000000;2225.00000000000;2288.00000000000;2419.00000000000;2520.00000000000;2531.00000000000;2530.00000000000;2543.00000000000;2591.00000000000;2522.00000000000;2426.00000000000;2396.00000000000;2317.00000000000;2350.00000000000;2302.00000000000;2270.00000000000;2224.00000000000;2173.00000000000;2192.00000000000;2127.00000000000;2025.00000000000;1935.00000000000;1873.00000000000;1830.00000000000;1780.00000000000;1758.00000000000;1661.00000000000;1607.00000000000;1579.00000000000;1555.00000000000;1541.00000000000;1513.00000000000;1469.00000000000;1469.00000000000;1483.00000000000;1564.00000000000;1547.00000000000;1569.00000000000;1622.00000000000;1615.00000000000;1775.00000000000;1716.00000000000;1759.00000000000;1852.00000000000;1963.00000000000;2135.00000000000;2075.00000000000;1915.00000000000;2144.00000000000;2489.00000000000;2481.00000000000;2075.00000000000;1963.00000000000;2331.00000000000;2561.00000000000;1943.00000000000;1789.00000000000;2208.00000000000;2323.00000000000;2068.00000000000;1859.00000000000;1993.00000000000;2115.00000000000;2169.00000000000;2127.00000000000;2059.00000000000;2092.00000000000;2110.00000000000;2157.00000000000;2204.00000000000;2199.00000000000;2195.00000000000;2151.00000000000;2167.00000000000;2168.00000000000;2141.00000000000;2112.00000000000;2121.00000000000;2139.00000000000;2142.00000000000;2137.00000000000;2125.00000000000;2132.00000000000;2138.00000000000;2141.00000000000;2149.00000000000;2139.00000000000;2181.00000000000;2143.00000000000;2173.00000000000;2163.00000000000;2159.00000000000;2171.00000000000;2139.00000000000;2189.00000000000;2156.00000000000;2137.00000000000;2163.00000000000
Gyro Z : 1899.00000000000;1915.00000000000;1892.00000000000;1883.00000000000;1901.00000000000;1893.00000000000;1891.00000000000;1899.00000000000;1861.00000000000;1874.00000000000;1886.00000000000;1906.00000000000;1889.00000000000;1894.00000000000;1905.00000000000;1885.00000000000;1898.00000000000;1891.00000000000;1883.00000000000;1887.00000000000;1879.00000000000;1884.00000000000;1887.00000000000;1893.00000000000;1886.00000000000;1895.00000000000;1872.00000000000;1889.00000000000;1881.00000000000;1894.00000000000;1859.00000000000;1885.00000000000;1900.00000000000;1889.00000000000;1865.00000000000;1876.00000000000;1889.00000000000;1869.00000000000;1879.00000000000;1877.00000000000;1832.00000000000;1803.00000000000;1772.00000000000;1703.00000000000;1614.00000000000;1598.00000000000;1370.00000000000;955.000000000000;639.000000000000;488.000000000000;251.000000000000;22.0000000000000;21.0000000000000;23.0000000000000;24.0000000000000;25.0000000000000;25.0000000000000;26.0000000000000;29.0000000000000;124.000000000000;284.000000000000;441.000000000000;581.000000000000;707.000000000000;859.000000000000;979.000000000000;1078.00000000000;1179.00000000000;1378.00000000000;1495.00000000000;1568.00000000000;1778.00000000000;2006.00000000000;2153.00000000000;2502.00000000000;2595.00000000000;2523.00000000000;2602.00000000000;2655.00000000000;2656.00000000000;2573.00000000000;2471.00000000000;2421.00000000000;2342.00000000000;2241.00000000000;2171.00000000000;2109.00000000000;2054.00000000000;2013.00000000000;1937.00000000000;1881.00000000000;1797.00000000000;1647.00000000000;1665.00000000000;1650.00000000000;1667.00000000000;1681.00000000000;1585.00000000000;1482.00000000000;1517.00000000000;1678.00000000000;1754.00000000000;1659.00000000000;1691.00000000000;1933.00000000000;2349.00000000000;2287.00000000000;1770.00000000000;1911.00000000000;2434.00000000000;2391.00000000000;2164.00000000000;2180.00000000000;2225.00000000000;2125.00000000000;2162.00000000000;2072.00000000000;1959.00000000000;1951.00000000000;2006.00000000000;2004.00000000000;1932.00000000000;1856.00000000000;1853.00000000000;1799.00000000000;1824.00000000000;1821.00000000000;1806.00000000000;1805.00000000000;1821.00000000000;1828.00000000000;1864.00000000000;1842.00000000000;1847.00000000000;1811.00000000000;1841.00000000000;1864.00000000000;1867.00000000000;1864.00000000000;1867.00000000000;1831.00000000000;1879.00000000000;1892.00000000000;1860.00000000000;1880.00000000000;1907.00000000000;1878.00000000000;1877.00000000000;1892.00000000000;1878.00000000000
