COMMAND 3 SAMPLE 1
Accel X : 944.000000000000;987.000000000000;971.000000000000;1006.00000000000;987.000000000000;978.000000000000;969.000000000000;968.000000000000;1008.00000000000;1015.00000000000;1013.00000000000;985.000000000000;958.000000000000;971.000000000000;997.000000000000;1004.00000000000;982.000000000000;956.000000000000;985.000000000000;981.000000000000;984.000000000000;986.000000000000;989.000000000000;975.000000000000;985.000000000000;984.000000000000;1015.00000000000;1020.00000000000;996.000000000000;1013.00000000000;995.000000000000;1015.00000000000;996.000000000000;1009.00000000000;928.000000000000;915.000000000000;894.000000000000;871.000000000000;837.000000000000;663.000000000000;549.000000000000;477.000000000000;528.000000000000;623.000000000000;564.000000000000;665.000000000000;635.000000000000;843.000000000000;1219.00000000000;1381.00000000000;1234.00000000000;1318.00000000000;1458.00000000000;1495.00000000000;1544.00000000000;1639.00000000000;1602.00000000000;1721.00000000000;1767.00000000000;1765.00000000000;1798.00000000000;1804.00000000000;1845.00000000000;1868.00000000000;1923.00000000000;1957.00000000000;1965.00000000000;1980.00000000000;1996.00000000000;1998.00000000000;2059.00000000000;2002.00000000000;2011.00000000000;2056.00000000000;2063.00000000000;2042.00000000000;2021.00000000000;2013.00000000000;1992.00000000000;2014.00000000000;2010.00000000000;2005.00000000000;1967.00000000000;1897.00000000000;1901.00000000000;1941.00000000000;1885.00000000000;1917.00000000000;1791.00000000000;1778.00000000000;1728.00000000000;1807.00000000000;1821.00000000000;1660.00000000000;1514.00000000000;1516.00000000000;1471.00000000000;1306.00000000000;1013.00000000000;978.000000000000;828.000000000000;485.000000000000;376.000000000000;175.000000000000;397.000000000000;261.000000000000;271.000000000000;399.000000000000;614.000000000000;554.000000000000;332.000000000000;504.000000000000;756.000000000000;819.000000000000;828.000000000000;892.000000000000;979.000000000000;955.000000000000;939.000000000000;890.000000000000;918.000000000000;944.000000000000;946.000000000000;997.000000000000;1005.00000000000;995.000000000000;985.000000000000;1005.00000000000;978.000000000000;1035.00000000000;1018.00000000000;1032.00000000000;1000.00000000000;1005.00000000000;1033.00000000000;1022.00000000000;1019.00000000000;1011.00000000000;1011.00000000000;1011.00000000000;1003.00000000000;1004.00000000000;993.000000000000;985.000000000000;992.000000000000;972.000000000000;999.000000000000;970.000000000000;1017.00000000000;996.000000000000
Accel Y : 2289.00000000000;2251.00000000000;2288.00000000000;2274.00000000000;2283.00000000000;2285.00000000000;2295.00000000000;2295.00000000000;2271.00000000000;2275.00000000000;2277.00000000000;2273.00000000000;2317.00000000000;2285.00000000000;2281.00000000000;2299.00000000000;2288.00000000000;2314.00000000000;2277.00000000000;2274.00000000000;2303.00000000000;2293.00000000000;2297.00000000000;2301.00000000000;2288.00000000000;2294.00000000000;2272.00000000000;2288.00000000000;2249.00000000000;2252.00000000000;2247.00000000000;2228.00000000000;2190.00000000000;2131.00000000000;2141.00000000000;2116.00000000000;2014.00000000000;1916.00000000000;1847.00000000000;1818.00000000000;1860.00000000000;1814.00000000000;1784.00000000000;1795.00000000000;1742.00000000000;1780.00000000000;1949.00000000000;2044.00000000000;2183.00000000000;2318.00000000000;2373.00000000000;2405.00000000000;2339.00000000000;2399.00000000000;2434.00000000000;2411.00000000000;2339.00000000000;2321.00000000000;2288.00000000000;2293.00000000000;2251.00000000000;2198.00000000000;2184.00000000000;2077.00000000000;1952.00000000000;1966.00000000000;1913.00000000000;1800.00000000000;1730.00000000000;1686.00000000000;1650.00000000000;1581.00000000000;1582.00000000000;1541.00000000000;1510.00000000000;1482.00000000000;1494.00000000000;1485.00000000000;1474.00000000000;1491.00000000000;1509.00000000000;1489.00000000000;1605.00000000000;1705.00000000000;1771.00000000000;1655.00000000000;1658.00000000000;1749.00000000000;1923.00000000000;1878.00000000000;1839.00000000000;1836.00000000000;1896.00000000000;1915.00000000000;1920.00000000000;1772.00000000000;1662.00000000000;1668.00000000000;2009.00000000000;1798.00000000000;1549.00000000000;1642.00000000000;1851.00000000000;2061.00000000000;1741.00000000000;1636.00000000000;1851.00000000000;2138.00000000000;2110.00000000000;1880.00000000000;1899.00000000000;2038.00000000000;2173.00000000000;2104.00000000000;2024.00000000000;1963.00000000000;2069.00000000000;2115.00000000000;2122.00000000000;2097.00000000000;2086.00000000000;2100.00000000000;2125.00000000000;2185.00000000000;2154.00000000000;2155.00000000000;2154.00000000000;2149.00000000000;2118.00000000000;2091.00000000000;2102.00000000000;2106.00000000000;2118.00000000000;2113.00000000000;2107.00000000000;2108.00000000000;2144.00000000000;2127.00000000000;2135.00000000000;2115.00000000000;2126.00000000000;2135.00000000000;2140.00000000000;2149.00000000000;2126.00000000000;2123.00000000000;2135.00000000000;2164.00000000000;2153.00000000000;2131.00000000000
Accel Z : 1762.00000000000;1759.00000000000;1758.00000000000;1733.00000000000;1744.00000000000;1731.00000000000;1760.00000000000;1752.00000000000;1753.00000000000;1759.00000000000;1755.00000000000;1756.00000000000;1746.00000000000;1746.00000000000;1730.00000000000;1767.00000000000;1750.00000000000;1740.00000000000;1758.00000000000;1724.00000000000;1767.00000000000;1738.00000000000;1724.00000000000;1739.00000000000;1736.00000000000;1716.00000000000;1737.00000000000;1729.00000000000;1727.00000000000;1720.00000000000;1739.00000000000;1722.00000000000;1707.00000000000;1684.00000000000;1631.00000000000;1610.00000000000;1538.00000000000;1459.00000000000;1399.00000000000;1253.00000000000;1121.00000000000;854.000000000000;644.000000000000;480.000000000000;170.000000000000;25.0000000000000;22.0000000000000;24.0000000000000;22.0000000000000;23.0000000000000;26.0000000000000;30.0000000000000;114.000000000000;299.000000000000;495.000000000000;671.000000000000;755.000000000000;916.000000000000;1023.00000000000;1185.00000000000;1346.00000000000;1497.00000000000;1610.00000000000;1751.00000000000;1828.00000000000;1894.00000000000;2040.00000000000;2246.00000000000;2263.00000000000;2264.00000000000;2320.00000000000;2321.00000000000;2379.00000000000;2394.00000000000;2323.00000000000;2257.00000000000;2234.00000000000;2206.00000000000;2190.00000000000;2177.00000000000;2075.00000000000;2040.00000000000;1979.00000000000;1931.00000000000;1887.00000000000;1895.00000000000;1771.00000000000;1788.00000000000;1765.00000000000;1658.00000000000;1463.00000000000;1269.00000000000;1212.00000000000;1334.00000000000;1277.00000000000;1070.00000000000;838.000000000000;858.000000000000;1076.00000000000;1171.00000000000;1059.00000000000;1159.00000000000;1479.00000000000;1644.00000000000;1749.00000000000;1751.00000000000;2013.00000000000;2134.00000000000;2071.00000000000;2021.00000000000;1922.00000000000;2126.00000000000;2220.00000000000;2158.00000000000;1981.00000000000;2021.00000000000;2160.00000000000;2187.00000000000;2122.00000000000;2044.00000000000;1984.00000000000;1993.00000000000;2002.00000000000;1991.00000000000;1981.00000000000;1932.00000000000;1897.00000000000;1897.00000000000;1921.00000000000;1915.00000000000;1937.00000000000;1894.00000000000;1892.00000000000;1918.00000000000;1909.00000000000;1897.00000000000;1887.00000000000;1912.00000000000;1901.00000000000;1902.00000000000;1887.00000000000;1874.00000000000;1883.00000000000;1870.00000000000;1868.00000000000;1848.00000000000;1854.00000000000;1870.00000000000;1856.00000000000;1869.00000000000
Gyro X : 944.000000000000;987.000000000000;971.000000000000;1006.00000000000;987.000000000000;978.000000000000;969.000000000000;968.000000000000;1008.00000000000;1015.00000000000;1013.00000000000;985.000000000000;958.000000000000;971.000000000000;997.000000000000;1004.00000000000;982.000000000000;956.000000000000;985.000000000000;981.000000000000;984.000000000000;986.000000000000;989.000000000000;975.000000000000;985.000000000000;984.000000000000;1015.00000000000;1020.00000000000;996.000000000000;1013.00000000000;995.000000000000;1015.00000000000;996.000000000000;1009.00000000000;928.000000000000;915.000000000000;894.000000000000;871.000000000000;837.000000000000;663.000000000000;549.000000000000;477.000000000000;528.000000000000;623.000000000000;564.000000000000;665.000000000000;635.000000000000;843.000000000000;1219.00000000000;1381.00000000000;1234.00000000000;1318.00000000000;1458.00000000000;1495.00000000000;1544.00000000000;1639.00000000000;1602.00000000000;1721.00000000000;1767.00000000000;1765.00000000000;1798.00000000000;1804.00000000000;1845.00000000000;1868.00000000000;1923.00000000000;1957.00000000000;1965.00000000000;1980.00000000000;1996.00000000000;1998.00000000000;2059.00000000000;2002.00000000000;2011.00000000000;2056.00000000000;2063.00000000000;2042.00000000000;2021.00000000000;2013.00000000000;1992.00000000000;2014.00000000000;2010.00000000000;2005.00000000000;1967.00000000000;1897.00000000000;1901.00000000000;1941.00000000000;1885.00000000000;1917.00000000000;1791.00000000000;1778.00000000000;1728.00000000000;1807.00000000000;1821.00000000000;1660.00000000000;1514.00000000000;1516.00000000000;1471.00000000000;1306.00000000000;1013.00000000000;978.000000000000;828.000000000000;485.000000000000;376.000000000000;175.000000000000;397.000000000000;261.000000000000;271.000000000000;399.000000000000;614.000000000000;554.000000000000;332.000000000000;504.000000000000;756.000000000000;819.000000000000;828.000000000000;892.000000000000;979.000000000000;955.000000000000;939.000000000000;890.000000000000;918.000000000000;944.000000000000;946.000000000000;997.000000000000;1005.00000000000;995.000000000000;985.000000000000;1005.00000000000;978.000000000000;1035.00000000000;1018.00000000000;1032.00000000000;1000.00000000000;1005.00000000000;1033.00000000000;1022.00000000000;1019.00000000000;1011.00000000000;1011.00000000000;1011.00000000000;1003.00000000000;1004.00000000000;993.000000000000;985.000000000000;992.000000000000;972.000000000000;999.000000000000;970.000000000000;1017.00000000000;996.000000000000
Gyro Y : 2289.00000000000;2251.00000000000;2288.00000000000;2274.00000000000;2283.00000000000;2285.00000000000;2295.00000000000;2295.00000000000;2271.00000000000;2275.00000000000;2277.00000000000;2273.00000000000;2317.00000000000;2285.00000000000;2281.00000000000;2299.00000000000;2288.00000000000;2314.00000000000;2277.00000000000;2274.00000000000;2303.00000000000;2293.00000000000;2297.00000000000;2301.00000000000;2288.00000000000;2294.00000000000;2272.00000000000;2288.00000000000;2249.00000000000;2252.00000000000;2247.00000000000;2228.00000000000;2190.00000000000;2131.00000000000;2141.00000000000;2116.00000000000;2014.00000000000;1916.00000000000;1847.00000000000;1818.00000000000;1860.00000000000;1814.00000000000;1784.00000000000;1795.00000000000;1742.00000000000;1780.00000000000;1949.00000000000;2044.00000000000;2183.00000000000;2318.00000000000;2373.00000000000;2405.00000000000;2339.00000000000;2399.00000000000;2434.00000000000;2411.00000000000;2339.00000000000;2321.00000000000;2288.00000000000;2293.00000000000;2251.00000000000;2198.00000000000;2184.00000000000;2077.00000000000;1952.00000000000;1966.00000000000;1913.00000000000;1800.00000000000;1730.00000000000;1686.00000000000;1650.00000000000;1581.00000000000;1582.00000000000;1541.00000000000;1510.00000000000;1482.00000000000;1494.00000000000;1485.00000000000;1474.00000000000;1491.00000000000;1509.00000000000;1489.00000000000;1605.00000000000;1705.00000000000;1771.00000000000;1655.00000000000;1658.00000000000;1749.00000000000;1923.00000000000;1878.00000000000;1839.00000000000;1836.00000000000;1896.00000000000;1915.00000000000;1920.00000000000;1772.00000000000;1662.00000000000;1668.00000000000;2009.00000000000;1798.00000000000;1549.00000000000;1642.00000000000;1851.00000000000;2061.00000000000;1741.00000000000;1636.00000000000;1851.00000000000;2138.00000000000;2110.00000000000;1880.00000000000;1899.00000000000;2038.00000000000;2173.00000000000;2104.00000000000;2024.00000000000;1963.00000000000;2069.00000000000;2115.00000000000;2122.00000000000;2097.00000000000;2086.00000000000;2100.00000000000;2125.00000000000;2185.00000000000;2154.00000000000;2155.00000000000;2154.00000000000;2149.00000000000;2118.00000000000;2091.00000000000;2102.00000000000;2106.00000000000;2118.00000000000;2113.00000000000;2107.00000000000;2108.00000000000;2144.00000000000;2127.00000000000;2135.00000000000;2115.00000000000;2126.00000000000;2135.00000000000;2140.00000000000;2149.00000000000;2126.00000000000;2123.00000000000;2135.00000000000;2164.00000000000;2153.00000000000;2131.00000000000
Gyro Z : 1762.00000000000;1759.00000000000;1758.00000000000;1733.00000000000;1744.00000000000;1731.00000000000;1760.00000000000;1752.00000000000;1753.00000000000;1759.00000000000;1755.00000000000;1756.00000000000;1746.00000000000;1746.00000000000;1730.00000000000;1767.00000000000;1750.00000000000;1740.00000000000;1758.00000000000;1724.00000000000;1767.00000000000;1738.00000000000;1724.00000000000;1739.00000000000;1736.00000000000;1716.00000000000;1737.00000000000;1729.00000000000;1727.00000000000;1720.00000000000;1739.00000000000;1722.00000000000;1707.00000000000;1684.00000000000;1631.00000000000;1610.00000000000;1538.00000000000;1459.00000000000;1399.00000000000;1253.00000000000;1121.00000000000;854.000000000000;644.000000000000;480.000000000000;170.000000000000;25.0000000000000;22.0000000000000;24.0000000000000;22.0000000000000;23.0000000000000;26.0000000000000;30.0000000000000;114.000000000000;299.000000000000;495.000000000000;671.000000000000;755.000000000000;916.000000000000;1023.00000000000;1185.00000000000;1346.00000000000;1497.00000000000;1610.00000000000;1751.00000000000;1828.00000000000;1894.00000000000;2040.00000000000;2246.00000000000;2263.00000000000;2264.00000000000;2320.00000000000;2321.00000000000;2379.00000000000;2394.00000000000;2323.00000000000;2257.00000000000;2234.00000000000;2206.00000000000;2190.00000000000;2177.00000000000;2075.00000000000;2040.00000000000;1979.00000000000;1931.00000000000;1887.00000000000;1895.00000000000;1771.00000000000;1788.00000000000;1765.00000000000;1658.00000000000;1463.00000000000;1269.00000000000;1212.00000000000;1334.00000000000;1277.00000000000;1070.00000000000;838.000000000000;858.000000000000;1076.00000000000;1171.00000000000;1059.00000000000;1159.00000000000;1479.00000000000;1644.00000000000;1749.00000000000;1751.00000000000;2013.00000000000;2134.00000000000;2071.00000000000;2021.00000000000;1922.00000000000;2126.00000000000;2220.00000000000;2158.00000000000;1981.00000000000;2021.00000000000;2160.00000000000;2187.00000000000;2122.00000000000;2044.00000000000;1984.00000000000;1993.00000000000;2002.00000000000;1991.00000000000;1981.00000000000;1932.00000000000;1897.00000000000;1897.00000000000;1921.00000000000;1915.00000000000;1937.00000000000;1894.00000000000;1892.00000000000;1918.00000000000;1909.00000000000;1897.00000000000;1887.00000000000;1912.00000000000;1901.00000000000;1902.00000000000;1887.00000000000;1874.00000000000;1883.00000000000;1870.00000000000;1868.00000000000;1848.00000000000;1854.00000000000;1870.00000000000;1856.00000000000;1869.00000000000
