COMMAND 3 SAMPLE 1
Accel X : 965.000000000000;954.000000000000;993.000000000000;984.000000000000;1004.00000000000;971.000000000000;967.000000000000;980.000000000000;966.000000000000;1000.00000000000;984.000000000000;974.000000000000;984.000000000000;1003.00000000000;1003.00000000000;973.000000000000;974.000000000000;969.000000000000;993.000000000000;1002.00000000000;1015.00000000000;984.000000000000;997.000000000000;974.000000000000;1003.00000000000;1012.00000000000;996.000000000000;980.000000000000;946.000000000000;953.000000000000;856.000000000000;814.000000000000;775.000000000000;747.000000000000;686.000000000000;475.000000000000;443.000000000000;463.000000000000;636.000000000000;633.000000000000;729.000000000000;786.000000000000;914.000000000000;1053.00000000000;1141.00000000000;1147.00000000000;1305.00000000000;1410.00000000000;1496.00000000000;1583.00000000000;1562.00000000000;1648.00000000000;1705.00000000000;1697.00000000000;1755.00000000000;1786.00000000000;1799.00000000000;1866.00000000000;1936.00000000000;1932.00000000000;1942.00000000000;1937.00000000000;2025.00000000000;2074.00000000000;2080.00000000000;2160.00000000000;2194.00000000000;2181.00000000000;2180.00000000000;2192.00000000000;2197.00000000000;2171.00000000000;2134.00000000000;2121.00000000000;2166.00000000000;2145.00000000000;2110.00000000000;2126.00000000000;2166.00000000000;2155.00000000000;2145.00000000000;2181.00000000000;2169.00000000000;2230.00000000000;2191.00000000000;2222.00000000000;2096.00000000000;2146.00000000000;2178.00000000000;2117.00000000000;1949.00000000000;1951.00000000000;1981.00000000000;1939.00000000000;1776.00000000000;1606.00000000000;1501.00000000000;1500.00000000000;1400.00000000000;1107.00000000000;880.000000000000;768.000000000000;657.000000000000;534.000000000000;200.000000000000;17.0000000000000;83.0000000000000;524.000000000000;755.000000000000;337.000000000000;248.000000000000;420.000000000000;679.000000000000;732.000000000000;704.000000000000;779.000000000000;811.000000000000;897.000000000000;855.000000000000;818.000000000000;928.000000000000;998.000000000000;1029.00000000000;1002.00000000000;960.000000000000;943.000000000000;978.000000000000;984.000000000000;1042.00000000000;1071.00000000000;1028.00000000000;1045.00000000000;1028.00000000000;995.000000000000;1016.00000000000;996.000000000000;1019.00000000000;973.000000000000;970.000000000000;963.000000000000;1038.00000000000;1067.00000000000;1029.00000000000;991.000000000000;986.000000000000;997.000000000000;952.000000000000;1029.00000000000;955.000000000000;975.000000000000
Accel Y : 2233.00000000000;2227.00000000000;2205.00000000000;2238.00000000000;2224.00000000000;2221.00000000000;2219.00000000000;2207.00000000000;2211.00000000000;2218.00000000000;2222.00000000000;2213.00000000000;2220.00000000000;2220.00000000000;2228.00000000000;2205.00000000000;2221.00000000000;2215.00000000000;2202.00000000000;2207.00000000000;2210.00000000000;2197.00000000000;2192.00000000000;2195.00000000000;2175.00000000000;2179.00000000000;2146.00000000000;2150.00000000000;2091.00000000000;2042.00000000000;2008.00000000000;1973.00000000000;1892.00000000000;1827.00000000000;1820.00000000000;1773.00000000000;1825.00000000000;1838.00000000000;1799.00000000000;1680.00000000000;1605.00000000000;1574.00000000000;1718.00000000000;1799.00000000000;1922.00000000000;1878.00000000000;1877.00000000000;1975.00000000000;2000.00000000000;1938.00000000000;1941.00000000000;2001.00000000000;2008.00000000000;2006.00000000000;1968.00000000000;1993.00000000000;1901.00000000000;1859.00000000000;1910.00000000000;1988.00000000000;1910.00000000000;1891.00000000000;1857.00000000000;1739.00000000000;1701.00000000000;1707.00000000000;1692.00000000000;1601.00000000000;1584.00000000000;1542.00000000000;1492.00000000000;1450.00000000000;1411.00000000000;1430.00000000000;1419.00000000000;1427.00000000000;1402.00000000000;1434.00000000000;1406.00000000000;1402.00000000000;1469.00000000000;1623.00000000000;1726.00000000000;1755.00000000000;1755.00000000000;1866.00000000000;1990.00000000000;2091.00000000000;2099.00000000000;2102.00000000000;2217.00000000000;2392.00000000000;2564.00000000000;2395.00000000000;2411.00000000000;2451.00000000000;2373.00000000000;2403.00000000000;2324.00000000000;2116.00000000000;2212.00000000000;2344.00000000000;2037.00000000000;1917.00000000000;1827.00000000000;1919.00000000000;2127.00000000000;2147.00000000000;2143.00000000000;2037.00000000000;1957.00000000000;2108.00000000000;2184.00000000000;2299.00000000000;2261.00000000000;2125.00000000000;2234.00000000000;2236.00000000000;2258.00000000000;2243.00000000000;2147.00000000000;2182.00000000000;2248.00000000000;2227.00000000000;2217.00000000000;2183.00000000000;2178.00000000000;2217.00000000000;2231.00000000000;2254.00000000000;2221.00000000000;2223.00000000000;2223.00000000000;2211.00000000000;2211.00000000000;2227.00000000000;2220.00000000000;2208.00000000000;2209.00000000000;2206.00000000000;2213.00000000000;2223.00000000000;2199.00000000000;2223.00000000000;2203.00000000000;2193.00000000000;2257.00000000000;2178.00000000000;2198.00000000000;2195.00000000000
Accel Z : 1814.00000000000;1828.00000000000;1812.00000000000;1801.00000000000;1787.00000000000;1790.00000000000;1799.00000000000;1800.00000000000;1808.00000000000;1805.00000000000;1820.00000000000;1811.00000000000;1825.00000000000;1816.00000000000;1815.00000000000;1835.00000000000;1814.00000000000;1800.00000000000;1827.00000000000;1795.00000000000;1819.00000000000;1806.00000000000;1791.00000000000;1818.00000000000;1780.00000000000;1798.00000000000;1780.00000000000;1754.00000000000;1697.00000000000;1635.00000000000;1581.00000000000;1490.00000000000;1467.00000000000;1371.00000000000;1251.00000000000;1063.00000000000;807.000000000000;718.000000000000;702.000000000000;547.000000000000;368.000000000000;137.000000000000;219.000000000000;184.000000000000;177.000000000000;162.000000000000;232.000000000000;341.000000000000;490.000000000000;611.000000000000;705.000000000000;759.000000000000;831.000000000000;987.000000000000;1112.00000000000;1268.00000000000;1478.00000000000;1524.00000000000;1581.00000000000;1648.00000000000;1732.00000000000;1848.00000000000;1892.00000000000;2013.00000000000;2080.00000000000;2133.00000000000;2189.00000000000;2179.00000000000;2154.00000000000;2230.00000000000;2351.00000000000;2358.00000000000;2292.00000000000;2367.00000000000;2338.00000000000;2319.00000000000;2282.00000000000;2280.00000000000;2245.00000000000;2200.00000000000;2163.00000000000;2195.00000000000;2156.00000000000;2119.00000000000;2012.00000000000;1948.00000000000;1941.00000000000;1889.00000000000;1836.00000000000;1792.00000000000;1693.00000000000;1683.00000000000;1496.00000000000;1228.00000000000;976.000000000000;767.000000000000;607.000000000000;505.000000000000;162.000000000000;23.0000000000000;22.0000000000000;23.0000000000000;25.0000000000000;26.0000000000000;26.0000000000000;328.000000000000;718.000000000000;987.000000000000;1296.00000000000;1159.00000000000;1189.00000000000;1469.00000000000;1618.00000000000;1666.00000000000;1497.00000000000;1513.00000000000;1586.00000000000;1702.00000000000;1652.00000000000;1518.00000000000;1556.00000000000;1616.00000000000;1693.00000000000;1657.00000000000;1600.00000000000;1631.00000000000;1635.00000000000;1657.00000000000;1706.00000000000;1752.00000000000;1701.00000000000;1686.00000000000;1688.00000000000;1658.00000000000;1718.00000000000;1768.00000000000;1740.00000000000;1717.00000000000;1683.00000000000;1718.00000000000;1770.00000000000;1767.00000000000;1778.00000000000;1782.00000000000;1758.00000000000;1773.00000000000;1777.00000000000;1842.00000000000;1811.00000000000;1848.00000000000
Gyro X : 965.000000000000;954.000000000000;993.000000000000;984.000000000000;1004.00000000000;971.000000000000;967.000000000000;980.000000000000;966.000000000000;1000.00000000000;984.000000000000;974.000000000000;984.000000000000;1003.00000000000;1003.00000000000;973.000000000000;974.000000000000;969.000000000000;993.000000000000;1002.00000000000;1015.00000000000;984.000000000000;997.000000000000;974.000000000000;1003.00000000000;1012.00000000000;996.000000000000;980.000000000000;946.000000000000;953.000000000000;856.000000000000;814.000000000000;775.000000000000;747.000000000000;686.000000000000;475.000000000000;443.000000000000;463.000000000000;636.000000000000;633.000000000000;729.000000000000;786.000000000000;914.000000000000;1053.00000000000;1141.00000000000;1147.00000000000;1305.00000000000;1410.00000000000;1496.00000000000;1583.00000000000;1562.00000000000;1648.00000000000;1705.00000000000;1697.00000000000;1755.00000000000;1786.00000000000;1799.00000000000;1866.00000000000;1936.00000000000;1932.00000000000;1942.00000000000;1937.00000000000;2025.00000000000;2074.00000000000;2080.00000000000;2160.00000000000;2194.00000000000;2181.00000000000;2180.00000000000;2192.00000000000;2197.00000000000;2171.00000000000;2134.00000000000;2121.00000000000;2166.00000000000;2145.00000000000;2110.00000000000;2126.00000000000;2166.00000000000;2155.00000000000;2145.00000000000;2181.00000000000;2169.00000000000;2230.00000000000;2191.00000000000;2222.00000000000;2096.00000000000;2146.00000000000;2178.00000000000;2117.00000000000;1949.00000000000;1951.00000000000;1981.00000000000;1939.00000000000;1776.00000000000;1606.00000000000;1501.00000000000;1500.00000000000;1400.00000000000;1107.00000000000;880.000000000000;768.000000000000;657.000000000000;534.000000000000;200.000000000000;17.0000000000000;83.0000000000000;524.000000000000;755.000000000000;337.000000000000;248.000000000000;420.000000000000;679.000000000000;732.000000000000;704.000000000000;779.000000000000;811.000000000000;897.000000000000;855.000000000000;818.000000000000;928.000000000000;998.000000000000;1029.00000000000;1002.00000000000;960.000000000000;943.000000000000;978.000000000000;984.000000000000;1042.00000000000;1071.00000000000;1028.00000000000;1045.00000000000;1028.00000000000;995.000000000000;1016.00000000000;996.000000000000;1019.00000000000;973.000000000000;970.000000000000;963.000000000000;1038.00000000000;1067.00000000000;1029.00000000000;991.000000000000;986.000000000000;997.000000000000;952.000000000000;1029.00000000000;955.000000000000;975.000000000000
Gyro Y : 2233.00000000000;2227.00000000000;2205.00000000000;2238.00000000000;2224.00000000000;2221.00000000000;2219.00000000000;2207.00000000000;2211.00000000000;2218.00000000000;2222.00000000000;2213.00000000000;2220.00000000000;2220.00000000000;2228.00000000000;2205.00000000000;2221.00000000000;2215.00000000000;2202.00000000000;2207.00000000000;2210.00000000000;2197.00000000000;2192.00000000000;2195.00000000000;2175.00000000000;2179.00000000000;2146.00000000000;2150.00000000000;2091.00000000000;2042.00000000000;2008.00000000000;1973.00000000000;1892.00000000000;1827.00000000000;1820.00000000000;1773.00000000000;1825.00000000000;1838.00000000000;1799.00000000000;1680.00000000000;1605.00000000000;1574.00000000000;1718.00000000000;1799.00000000000;1922.00000000000;1878.00000000000;1877.00000000000;1975.00000000000;2000.00000000000;1938.00000000000;1941.00000000000;2001.00000000000;2008.00000000000;2006.00000000000;1968.00000000000;1993.00000000000;1901.00000000000;1859.00000000000;1910.00000000000;1988.00000000000;1910.00000000000;1891.00000000000;1857.00000000000;1739.00000000000;1701.00000000000;1707.00000000000;1692.00000000000;1601.00000000000;1584.00000000000;1542.00000000000;1492.00000000000;1450.00000000000;1411.00000000000;1430.00000000000;1419.00000000000;1427.00000000000;1402.00000000000;1434.00000000000;1406.00000000000;1402.00000000000;1469.00000000000;1623.00000000000;1726.00000000000;1755.00000000000;1755.00000000000;1866.00000000000;1990.00000000000;2091.00000000000;2099.00000000000;2102.00000000000;2217.00000000000;2392.00000000000;2564.00000000000;2395.00000000000;2411.00000000000;2451.00000000000;2373.00000000000;2403.00000000000;2324.00000000000;2116.00000000000;2212.00000000000;2344.00000000000;2037.00000000000;1917.00000000000;1827.00000000000;1919.00000000000;2127.00000000000;2147.00000000000;2143.00000000000;2037.00000000000;1957.00000000000;2108.00000000000;2184.00000000000;2299.00000000000;2261.00000000000;2125.00000000000;2234.00000000000;2236.00000000000;2258.00000000000;2243.00000000000;2147.00000000000;2182.00000000000;2248.00000000000;2227.00000000000;2217.00000000000;2183.00000000000;2178.00000000000;2217.00000000000;2231.00000000000;2254.00000000000;2221.00000000000;2223.00000000000;2223.00000000000;2211.00000000000;2211.00000000000;2227.00000000000;2220.00000000000;2208.00000000000;2209.00000000000;2206.00000000000;2213.00000000000;2223.00000000000;2199.00000000000;2223.00000000000;2203.00000000000;2193.00000000000;2257.00000000000;2178.00000000000;2198.00000000000;2195.00000000000
Gyro Z : 1814.00000000000;1828.00000000000;1812.00000000000;1801.00000000000;1787.00000000000;1790.00000000000;1799.00000000000;1800.00000000000;1808.00000000000;1805.00000000000;1820.00000000000;1811.00000000000;1825.00000000000;1816.00000000000;1815.00000000000;1835.00000000000;1814.00000000000;1800.00000000000;1827.00000000000;1795.00000000000;1819.00000000000;1806.00000000000;1791.00000000000;1818.00000000000;1780.00000000000;1798.00000000000;1780.00000000000;1754.00000000000;1697.00000000000;1635.00000000000;1581.00000000000;1490.00000000000;1467.00000000000;1371.00000000000;1251.00000000000;1063.00000000000;807.000000000000;718.000000000000;702.000000000000;547.000000000000;368.000000000000;137.000000000000;219.000000000000;184.000000000000;177.000000000000;162.000000000000;232.000000000000;341.000000000000;490.000000000000;611.000000000000;705.000000000000;759.000000000000;831.000000000000;987.000000000000;1112.00000000000;1268.00000000000;1478.00000000000;1524.00000000000;1581.00000000000;1648.00000000000;1732.00000000000;1848.00000000000;1892.00000000000;2013.00000000000;2080.00000000000;2133.00000000000;2189.00000000000;2179.00000000000;2154.00000000000;2230.00000000000;2351.00000000000;2358.00000000000;2292.00000000000;2367.00000000000;2338.00000000000;2319.00000000000;2282.00000000000;2280.00000000000;2245.00000000000;2200.00000000000;2163.00000000000;2195.00000000000;2156.00000000000;2119.00000000000;2012.00000000000;1948.00000000000;1941.00000000000;1889.00000000000;1836.00000000000;1792.00000000000;1693.00000000000;1683.00000000000;1496.00000000000;1228.00000000000;976.000000000000;767.000000000000;607.000000000000;505.000000000000;162.000000000000;23.0000000000000;22.0000000000000;23.0000000000000;25.0000000000000;26.0000000000000;26.0000000000000;328.000000000000;718.000000000000;987.000000000000;1296.00000000000;1159.00000000000;1189.00000000000;1469.00000000000;1618.00000000000;1666.00000000000;1497.00000000000;1513.00000000000;1586.00000000000;1702.00000000000;1652.00000000000;1518.00000000000;1556.00000000000;1616.00000000000;1693.00000000000;1657.00000000000;1600.00000000000;1631.00000000000;1635.00000000000;1657.00000000000;1706.00000000000;1752.00000000000;1701.00000000000;1686.00000000000;1688.00000000000;1658.00000000000;1718.00000000000;1768.00000000000;1740.00000000000;1717.00000000000;1683.00000000000;1718.00000000000;1770.00000000000;1767.00000000000;1778.00000000000;1782.00000000000;1758.00000000000;1773.00000000000;1777.00000000000;1842.00000000000;1811.00000000000;1848.00000000000
