COMMAND 3 SAMPLE 1
Accel X : 981.000000000000;968.000000000000;973.000000000000;967.000000000000;986.000000000000;947.000000000000;963.000000000000;997.000000000000;1002.00000000000;1014.00000000000;969.000000000000;955.000000000000;961.000000000000;1008.00000000000;1019.00000000000;1012.00000000000;957.000000000000;968.000000000000;1009.00000000000;982.000000000000;976.000000000000;966.000000000000;1007.00000000000;1005.00000000000;1029.00000000000;1024.00000000000;955.000000000000;963.000000000000;959.000000000000;1015.00000000000;1008.00000000000;874.000000000000;750.000000000000;882.000000000000;839.000000000000;727.000000000000;563.000000000000;573.000000000000;706.000000000000;823.000000000000;792.000000000000;638.000000000000;651.000000000000;795.000000000000;888.000000000000;1041.00000000000;1029.00000000000;1106.00000000000;1163.00000000000;1329.00000000000;1636.00000000000;1431.00000000000;1455.00000000000;1492.00000000000;1679.00000000000;1779.00000000000;1696.00000000000;1677.00000000000;1793.00000000000;1839.00000000000;1960.00000000000;1932.00000000000;1925.00000000000;1976.00000000000;2015.00000000000;2083.00000000000;2043.00000000000;2096.00000000000;2156.00000000000;2111.00000000000;2183.00000000000;2173.00000000000;2137.00000000000;2123.00000000000;2112.00000000000;2112.00000000000;2086.00000000000;2016.00000000000;2033.00000000000;2081.00000000000;2089.00000000000;2020.00000000000;1984.00000000000;2011.00000000000;2086.00000000000;2014.00000000000;1858.00000000000;1806.00000000000;1923.00000000000;2053.00000000000;1942.00000000000;1656.00000000000;1757.00000000000;1864.00000000000;1530.00000000000;1232.00000000000;1102.00000000000;1323.00000000000;1383.00000000000;929.000000000000;608.000000000000;658.000000000000;974.000000000000;1035.00000000000;821.000000000000;847.000000000000;937.000000000000;1071.00000000000;1067.00000000000;914.000000000000;774.000000000000;859.000000000000;1023.00000000000;1008.00000000000;910.000000000000;955.000000000000;886.000000000000;1001.00000000000;1152.00000000000;1063.00000000000;963.000000000000;890.000000000000;900.000000000000;916.000000000000;908.000000000000;887.000000000000;867.000000000000;926.000000000000;952.000000000000;1003.00000000000;976.000000000000;984.000000000000;1035.00000000000;1016.00000000000;1012.00000000000;1028.00000000000;1015.00000000000;1010.00000000000;1024.00000000000;1034.00000000000;1039.00000000000;1027.00000000000;999.000000000000;984.000000000000;1018.00000000000;1005.00000000000;1009.00000000000;979.000000000000;983.000000000000;975.000000000000
Accel Y : 2186.00000000000;2187.00000000000;2194.00000000000;2203.00000000000;2212.00000000000;2204.00000000000;2187.00000000000;2202.00000000000;2202.00000000000;2198.00000000000;2196.00000000000;2203.00000000000;2212.00000000000;2206.00000000000;2192.00000000000;2195.00000000000;2208.00000000000;2197.00000000000;2205.00000000000;2200.00000000000;2219.00000000000;2211.00000000000;2174.00000000000;2195.00000000000;2203.00000000000;2190.00000000000;2208.00000000000;2185.00000000000;2166.00000000000;2172.00000000000;2143.00000000000;2128.00000000000;2145.00000000000;2140.00000000000;2048.00000000000;1972.00000000000;1918.00000000000;1956.00000000000;1878.00000000000;1853.00000000000;1731.00000000000;1674.00000000000;1652.00000000000;1728.00000000000;1747.00000000000;1727.00000000000;1776.00000000000;1814.00000000000;1848.00000000000;1957.00000000000;2023.00000000000;1985.00000000000;1999.00000000000;2011.00000000000;2179.00000000000;2155.00000000000;2141.00000000000;2178.00000000000;2163.00000000000;2085.00000000000;1993.00000000000;2021.00000000000;1991.00000000000;1958.00000000000;1854.00000000000;1791.00000000000;1724.00000000000;1675.00000000000;1637.00000000000;1594.00000000000;1520.00000000000;1519.00000000000;1527.00000000000;1526.00000000000;1489.00000000000;1461.00000000000;1476.00000000000;1471.00000000000;1518.00000000000;1603.00000000000;1666.00000000000;1585.00000000000;1640.00000000000;1791.00000000000;1845.00000000000;1854.00000000000;1850.00000000000;1943.00000000000;2121.00000000000;2151.00000000000;1852.00000000000;1842.00000000000;2191.00000000000;1990.00000000000;1581.00000000000;1631.00000000000;2050.00000000000;2487.00000000000;1895.00000000000;1475.00000000000;1717.00000000000;2024.00000000000;2094.00000000000;1942.00000000000;1681.00000000000;1759.00000000000;1901.00000000000;1999.00000000000;1867.00000000000;1902.00000000000;1936.00000000000;1991.00000000000;2063.00000000000;2089.00000000000;2117.00000000000;2087.00000000000;2113.00000000000;2181.00000000000;2218.00000000000;2216.00000000000;2201.00000000000;2198.00000000000;2256.00000000000;2234.00000000000;2215.00000000000;2182.00000000000;2164.00000000000;2204.00000000000;2198.00000000000;2174.00000000000;2175.00000000000;2172.00000000000;2166.00000000000;2196.00000000000;2163.00000000000;2162.00000000000;2157.00000000000;2170.00000000000;2167.00000000000;2144.00000000000;2136.00000000000;2122.00000000000;2150.00000000000;2150.00000000000;2154.00000000000;2151.00000000000;2146.00000000000;2177.00000000000;2190.00000000000;2189.00000000000
Accel Z : 1626.00000000000;1635.00000000000;1630.00000000000;1646.00000000000;1639.00000000000;1622.00000000000;1605.00000000000;1642.00000000000;1656.00000000000;1617.00000000000;1618.00000000000;1627.00000000000;1609.00000000000;1650.00000000000;1640.00000000000;1631.00000000000;1595.00000000000;1626.00000000000;1603.00000000000;1622.00000000000;1628.00000000000;1633.00000000000;1619.00000000000;1647.00000000000;1626.00000000000;1606.00000000000;1574.00000000000;1549.00000000000;1548.00000000000;1565.00000000000;1475.00000000000;1422.00000000000;1392.00000000000;1331.00000000000;1144.00000000000;1098.00000000000;1083.00000000000;1019.00000000000;977.000000000000;870.000000000000;671.000000000000;533.000000000000;459.000000000000;425.000000000000;337.000000000000;274.000000000000;193.000000000000;215.000000000000;269.000000000000;357.000000000000;486.000000000000;457.000000000000;599.000000000000;660.000000000000;709.000000000000;770.000000000000;893.000000000000;1120.00000000000;1262.00000000000;1394.00000000000;1534.00000000000;1660.00000000000;1798.00000000000;1837.00000000000;1949.00000000000;2119.00000000000;2205.00000000000;2259.00000000000;2277.00000000000;2338.00000000000;2399.00000000000;2399.00000000000;2464.00000000000;2476.00000000000;2411.00000000000;2412.00000000000;2379.00000000000;2315.00000000000;2278.00000000000;2214.00000000000;2166.00000000000;2146.00000000000;2088.00000000000;1991.00000000000;1882.00000000000;1739.00000000000;1695.00000000000;1641.00000000000;1587.00000000000;1451.00000000000;1324.00000000000;1319.00000000000;1455.00000000000;1125.00000000000;939.000000000000;864.000000000000;1038.00000000000;947.000000000000;518.000000000000;215.000000000000;147.000000000000;151.000000000000;34.0000000000000;24.0000000000000;24.0000000000000;113.000000000000;180.000000000000;389.000000000000;498.000000000000;509.000000000000;592.000000000000;762.000000000000;954.000000000000;1050.00000000000;1154.00000000000;1267.00000000000;1385.00000000000;1549.00000000000;1706.00000000000;1741.00000000000;1683.00000000000;1659.00000000000;1752.00000000000;1765.00000000000;1746.00000000000;1711.00000000000;1731.00000000000;1764.00000000000;1791.00000000000;1802.00000000000;1830.00000000000;1830.00000000000;1831.00000000000;1846.00000000000;1832.00000000000;1831.00000000000;1851.00000000000;1866.00000000000;1858.00000000000;1856.00000000000;1841.00000000000;1858.00000000000;1829.00000000000;1868.00000000000;1842.00000000000;1868.00000000000;1870.00000000000;1832.00000000000;1836.00000000000;1832.00000000000
Gyro X : 981.000000000000;968.000000000000;973.000000000000;967.000000000000;986.000000000000;947.000000000000;963.000000000000;997.000000000000;1002.00000000000;1014.00000000000;969.000000000000;955.000000000000;961.000000000000;1008.00000000000;1019.00000000000;1012.00000000000;957.000000000000;968.000000000000;1009.00000000000;982.000000000000;976.000000000000;966.000000000000;1007.00000000000;1005.00000000000;1029.00000000000;1024.00000000000;955.000000000000;963.000000000000;959.000000000000;1015.00000000000;1008.00000000000;874.000000000000;750.000000000000;882.000000000000;839.000000000000;727.000000000000;563.000000000000;573.000000000000;706.000000000000;823.000000000000;792.000000000000;638.000000000000;651.000000000000;795.000000000000;888.000000000000;1041.00000000000;1029.00000000000;1106.00000000000;1163.00000000000;1329.00000000000;1636.00000000000;1431.00000000000;1455.00000000000;1492.00000000000;1679.00000000000;1779.00000000000;1696.00000000000;1677.00000000000;1793.00000000000;1839.00000000000;1960.00000000000;1932.00000000000;1925.00000000000;1976.00000000000;2015.00000000000;2083.00000000000;2043.00000000000;2096.00000000000;2156.00000000000;2111.00000000000;2183.00000000000;2173.00000000000;2137.00000000000;2123.00000000000;2112.00000000000;2112.00000000000;2086.00000000000;2016.00000000000;2033.00000000000;2081.00000000000;2089.00000000000;2020.00000000000;1984.00000000000;2011.00000000000;2086.00000000000;2014.00000000000;1858.00000000000;1806.00000000000;1923.00000000000;2053.00000000000;1942.00000000000;1656.00000000000;1757.00000000000;1864.00000000000;1530.00000000000;1232.00000000000;1102.00000000000;1323.00000000000;1383.00000000000;929.000000000000;608.000000000000;658.000000000000;974.000000000000;1035.00000000000;821.000000000000;847.000000000000;937.000000000000;1071.00000000000;1067.00000000000;914.000000000000;774.000000000000;859.000000000000;1023.00000000000;1008.00000000000;910.000000000000;955.000000000000;886.000000000000;1001.00000000000;1152.00000000000;1063.00000000000;963.000000000000;890.000000000000;900.000000000000;916.000000000000;908.000000000000;887.000000000000;867.000000000000;926.000000000000;952.000000000000;1003.00000000000;976.000000000000;984.000000000000;1035.00000000000;1016.00000000000;1012.00000000000;1028.00000000000;1015.00000000000;1010.00000000000;1024.00000000000;1034.00000000000;1039.00000000000;1027.00000000000;999.000000000000;984.000000000000;1018.00000000000;1005.00000000000;1009.00000000000;979.000000000000;983.000000000000;975.000000000000
Gyro Y : 2186.00000000000;2187.00000000000;2194.00000000000;2203.00000000000;2212.00000000000;2204.00000000000;2187.00000000000;2202.00000000000;2202.00000000000;2198.00000000000;2196.00000000000;2203.00000000000;2212.00000000000;2206.00000000000;2192.00000000000;2195.00000000000;2208.00000000000;2197.00000000000;2205.00000000000;2200.00000000000;2219.00000000000;2211.00000000000;2174.00000000000;2195.00000000000;2203.00000000000;2190.00000000000;2208.00000000000;2185.00000000000;2166.00000000000;2172.00000000000;2143.00000000000;2128.00000000000;2145.00000000000;2140.00000000000;2048.00000000000;1972.00000000000;1918.00000000000;1956.00000000000;1878.00000000000;1853.00000000000;1731.00000000000;1674.00000000000;1652.00000000000;1728.00000000000;1747.00000000000;1727.00000000000;1776.00000000000;1814.00000000000;1848.00000000000;1957.00000000000;2023.00000000000;1985.00000000000;1999.00000000000;2011.00000000000;2179.00000000000;2155.00000000000;2141.00000000000;2178.00000000000;2163.00000000000;2085.00000000000;1993.00000000000;2021.00000000000;1991.00000000000;1958.00000000000;1854.00000000000;1791.00000000000;1724.00000000000;1675.00000000000;1637.00000000000;1594.00000000000;1520.00000000000;1519.00000000000;1527.00000000000;1526.00000000000;1489.00000000000;1461.00000000000;1476.00000000000;1471.00000000000;1518.00000000000;1603.00000000000;1666.00000000000;1585.00000000000;1640.00000000000;1791.00000000000;1845.00000000000;1854.00000000000;1850.00000000000;1943.00000000000;2121.00000000000;2151.00000000000;1852.00000000000;1842.00000000000;2191.00000000000;1990.00000000000;1581.00000000000;1631.00000000000;2050.00000000000;2487.00000000000;1895.00000000000;1475.00000000000;1717.00000000000;2024.00000000000;2094.00000000000;1942.00000000000;1681.00000000000;1759.00000000000;1901.00000000000;1999.00000000000;1867.00000000000;1902.00000000000;1936.00000000000;1991.00000000000;2063.00000000000;2089.00000000000;2117.00000000000;2087.00000000000;2113.00000000000;2181.00000000000;2218.00000000000;2216.00000000000;2201.00000000000;2198.00000000000;2256.00000000000;2234.00000000000;2215.00000000000;2182.00000000000;2164.00000000000;2204.00000000000;2198.00000000000;2174.00000000000;2175.00000000000;2172.00000000000;2166.00000000000;2196.00000000000;2163.00000000000;2162.00000000000;2157.00000000000;2170.00000000000;2167.00000000000;2144.00000000000;2136.00000000000;2122.00000000000;2150.00000000000;2150.00000000000;2154.00000000000;2151.00000000000;2146.00000000000;2177.00000000000;2190.00000000000;2189.00000000000
Gyro Z : 1626.00000000000;1635.00000000000;1630.00000000000;1646.00000000000;1639.00000000000;1622.00000000000;1605.00000000000;1642.00000000000;1656.00000000000;1617.00000000000;1618.00000000000;1627.00000000000;1609.00000000000;1650.00000000000;1640.00000000000;1631.00000000000;1595.00000000000;1626.00000000000;1603.00000000000;1622.00000000000;1628.00000000000;1633.00000000000;1619.00000000000;1647.00000000000;1626.00000000000;1606.00000000000;1574.00000000000;1549.00000000000;1548.00000000000;1565.00000000000;1475.00000000000;1422.00000000000;1392.00000000000;1331.00000000000;1144.00000000000;1098.00000000000;1083.00000000000;1019.00000000000;977.000000000000;870.000000000000;671.000000000000;533.000000000000;459.000000000000;425.000000000000;337.000000000000;274.000000000000;193.000000000000;215.000000000000;269.000000000000;357.000000000000;486.000000000000;457.000000000000;599.000000000000;660.000000000000;709.000000000000;770.000000000000;893.000000000000;1120.00000000000;1262.00000000000;1394.00000000000;1534.00000000000;1660.00000000000;1798.00000000000;1837.00000000000;1949.00000000000;2119.00000000000;2205.00000000000;2259.00000000000;2277.00000000000;2338.00000000000;2399.00000000000;2399.00000000000;2464.00000000000;2476.00000000000;2411.00000000000;2412.00000000000;2379.00000000000;2315.00000000000;2278.00000000000;2214.00000000000;2166.00000000000;2146.00000000000;2088.00000000000;1991.00000000000;1882.00000000000;1739.00000000000;1695.00000000000;1641.00000000000;1587.00000000000;1451.00000000000;1324.00000000000;1319.00000000000;1455.00000000000;1125.00000000000;939.000000000000;864.000000000000;1038.00000000000;947.000000000000;518.000000000000;215.000000000000;147.000000000000;151.000000000000;34.0000000000000;24.0000000000000;24.0000000000000;113.000000000000;180.000000000000;389.000000000000;498.000000000000;509.000000000000;592.000000000000;762.000000000000;954.000000000000;1050.00000000000;1154.00000000000;1267.00000000000;1385.00000000000;1549.00000000000;1706.00000000000;1741.00000000000;1683.00000000000;1659.00000000000;1752.00000000000;1765.00000000000;1746.00000000000;1711.00000000000;1731.00000000000;1764.00000000000;1791.00000000000;1802.00000000000;1830.00000000000;1830.00000000000;1831.00000000000;1846.00000000000;1832.00000000000;1831.00000000000;1851.00000000000;1866.00000000000;1858.00000000000;1856.00000000000;1841.00000000000;1858.00000000000;1829.00000000000;1868.00000000000;1842.00000000000;1868.00000000000;1870.00000000000;1832.00000000000;1836.00000000000;1832.00000000000
