COMMAND 3 SAMPLE 1
Accel X : 1009.00000000000;1020.00000000000;996.000000000000;968.000000000000;968.000000000000;977.000000000000;1017.00000000000;1019.00000000000;989.000000000000;958.000000000000;969.000000000000;972.000000000000;1032.00000000000;1027.00000000000;999.000000000000;957.000000000000;977.000000000000;1003.00000000000;999.000000000000;1014.00000000000;969.000000000000;945.000000000000;958.000000000000;962.000000000000;977.000000000000;983.000000000000;981.000000000000;883.000000000000;901.000000000000;946.000000000000;980.000000000000;949.000000000000;760.000000000000;706.000000000000;751.000000000000;847.000000000000;844.000000000000;727.000000000000;574.000000000000;658.000000000000;865.000000000000;893.000000000000;768.000000000000;889.000000000000;1098.00000000000;1382.00000000000;1476.00000000000;1420.00000000000;1382.00000000000;1499.00000000000;1555.00000000000;1677.00000000000;1691.00000000000;1596.00000000000;1657.00000000000;1690.00000000000;1737.00000000000;1740.00000000000;1754.00000000000;1798.00000000000;1848.00000000000;1864.00000000000;1871.00000000000;1913.00000000000;1929.00000000000;2037.00000000000;2099.00000000000;2077.00000000000;2092.00000000000;2110.00000000000;2137.00000000000;2134.00000000000;2110.00000000000;2174.00000000000;2105.00000000000;2120.00000000000;2120.00000000000;2163.00000000000;2105.00000000000;2057.00000000000;2004.00000000000;1983.00000000000;1945.00000000000;2059.00000000000;1990.00000000000;1908.00000000000;1954.00000000000;1992.00000000000;1906.00000000000;1875.00000000000;1860.00000000000;1791.00000000000;1886.00000000000;1976.00000000000;1768.00000000000;1689.00000000000;1542.00000000000;1634.00000000000;1660.00000000000;1368.00000000000;1259.00000000000;1279.00000000000;1115.00000000000;883.000000000000;576.000000000000;374.000000000000;421.000000000000;384.000000000000;145.000000000000;177.000000000000;149.000000000000;622.000000000000;525.000000000000;368.000000000000;574.000000000000;857.000000000000;987.000000000000;897.000000000000;739.000000000000;709.000000000000;732.000000000000;919.000000000000;910.000000000000;951.000000000000;890.000000000000;874.000000000000;895.000000000000;928.000000000000;925.000000000000;955.000000000000;953.000000000000;935.000000000000;974.000000000000;1017.00000000000;1031.00000000000;985.000000000000;1018.00000000000;1013.00000000000;1011.00000000000;1034.00000000000;1055.00000000000;1018.00000000000;1026.00000000000;998.000000000000;966.000000000000;983.000000000000;1010.00000000000;1007.00000000000;1008.00000000000;999.000000000000
Accel Y : 2245.00000000000;2273.00000000000;2268.00000000000;2262.00000000000;2287.00000000000;2269.00000000000;2289.00000000000;2263.00000000000;2271.00000000000;2286.00000000000;2285.00000000000;2268.00000000000;2282.00000000000;2238.00000000000;2291.00000000000;2290.00000000000;2297.00000000000;2282.00000000000;2286.00000000000;2305.00000000000;2298.00000000000;2305.00000000000;2314.00000000000;2302.00000000000;2304.00000000000;2278.00000000000;2277.00000000000;2283.00000000000;2266.00000000000;2220.00000000000;2154.00000000000;2146.00000000000;2207.00000000000;2142.00000000000;2059.00000000000;1930.00000000000;1768.00000000000;1811.00000000000;1858.00000000000;1814.00000000000;1810.00000000000;1880.00000000000;1815.00000000000;1855.00000000000;1719.00000000000;1733.00000000000;1819.00000000000;1929.00000000000;2009.00000000000;1993.00000000000;2038.00000000000;2061.00000000000;1997.00000000000;1987.00000000000;2043.00000000000;2048.00000000000;2054.00000000000;1992.00000000000;1998.00000000000;1959.00000000000;1967.00000000000;1860.00000000000;1901.00000000000;1879.00000000000;1875.00000000000;1865.00000000000;1766.00000000000;1791.00000000000;1785.00000000000;1730.00000000000;1685.00000000000;1617.00000000000;1628.00000000000;1591.00000000000;1540.00000000000;1522.00000000000;1520.00000000000;1537.00000000000;1525.00000000000;1525.00000000000;1560.00000000000;1567.00000000000;1643.00000000000;1594.00000000000;1523.00000000000;1615.00000000000;1607.00000000000;1658.00000000000;1715.00000000000;1568.00000000000;1622.00000000000;1739.00000000000;1733.00000000000;1691.00000000000;1823.00000000000;1842.00000000000;1886.00000000000;1947.00000000000;1787.00000000000;1700.00000000000;1932.00000000000;2145.00000000000;1868.00000000000;1634.00000000000;1687.00000000000;1965.00000000000;2155.00000000000;1940.00000000000;1843.00000000000;1970.00000000000;2043.00000000000;2275.00000000000;2253.00000000000;2223.00000000000;2117.00000000000;2203.00000000000;2239.00000000000;2212.00000000000;2205.00000000000;2249.00000000000;2301.00000000000;2315.00000000000;2331.00000000000;2275.00000000000;2235.00000000000;2272.00000000000;2305.00000000000;2332.00000000000;2341.00000000000;2347.00000000000;2360.00000000000;2345.00000000000;2313.00000000000;2320.00000000000;2350.00000000000;2326.00000000000;2313.00000000000;2325.00000000000;2323.00000000000;2307.00000000000;2287.00000000000;2310.00000000000;2278.00000000000;2306.00000000000;2290.00000000000;2285.00000000000;2296.00000000000;2292.00000000000;2266.00000000000;2274.00000000000
Accel Z : 1782.00000000000;1803.00000000000;1785.00000000000;1803.00000000000;1777.00000000000;1802.00000000000;1830.00000000000;1814.00000000000;1799.00000000000;1810.00000000000;1819.00000000000;1815.00000000000;1801.00000000000;1796.00000000000;1840.00000000000;1815.00000000000;1819.00000000000;1792.00000000000;1797.00000000000;1767.00000000000;1781.00000000000;1782.00000000000;1786.00000000000;1798.00000000000;1769.00000000000;1769.00000000000;1767.00000000000;1726.00000000000;1761.00000000000;1700.00000000000;1681.00000000000;1612.00000000000;1582.00000000000;1529.00000000000;1481.00000000000;1342.00000000000;1234.00000000000;1007.00000000000;738.000000000000;591.000000000000;500.000000000000;403.000000000000;182.000000000000;47.0000000000000;24.0000000000000;47.0000000000000;186.000000000000;199.000000000000;174.000000000000;167.000000000000;311.000000000000;525.000000000000;726.000000000000;678.000000000000;708.000000000000;860.000000000000;1052.00000000000;1181.00000000000;1249.00000000000;1332.00000000000;1494.00000000000;1592.00000000000;1732.00000000000;1836.00000000000;1920.00000000000;2107.00000000000;2180.00000000000;2265.00000000000;2278.00000000000;2314.00000000000;2401.00000000000;2432.00000000000;2446.00000000000;2424.00000000000;2361.00000000000;2314.00000000000;2310.00000000000;2238.00000000000;2162.00000000000;2034.00000000000;1980.00000000000;1946.00000000000;1925.00000000000;1913.00000000000;1832.00000000000;1751.00000000000;1710.00000000000;1645.00000000000;1623.00000000000;1601.00000000000;1554.00000000000;1503.00000000000;1417.00000000000;1309.00000000000;1250.00000000000;1223.00000000000;1173.00000000000;1080.00000000000;954.000000000000;918.000000000000;923.000000000000;873.000000000000;685.000000000000;786.000000000000;884.000000000000;934.000000000000;1009.00000000000;1053.00000000000;1185.00000000000;1333.00000000000;1403.00000000000;1677.00000000000;1684.00000000000;1614.00000000000;1812.00000000000;1955.00000000000;2048.00000000000;1949.00000000000;1845.00000000000;1843.00000000000;1882.00000000000;1962.00000000000;1922.00000000000;1885.00000000000;1825.00000000000;1828.00000000000;1881.00000000000;1882.00000000000;1879.00000000000;1865.00000000000;1820.00000000000;1759.00000000000;1775.00000000000;1794.00000000000;1846.00000000000;1793.00000000000;1806.00000000000;1800.00000000000;1797.00000000000;1814.00000000000;1830.00000000000;1818.00000000000;1800.00000000000;1807.00000000000;1829.00000000000;1826.00000000000;1850.00000000000;1829.00000000000;1836.00000000000;1833.00000000000
Gyro X : 1009.00000000000;1020.00000000000;996.000000000000;968.000000000000;968.000000000000;977.000000000000;1017.00000000000;1019.00000000000;989.000000000000;958.000000000000;969.000000000000;972.000000000000;1032.00000000000;1027.00000000000;999.000000000000;957.000000000000;977.000000000000;1003.00000000000;999.000000000000;1014.00000000000;969.000000000000;945.000000000000;958.000000000000;962.000000000000;977.000000000000;983.000000000000;981.000000000000;883.000000000000;901.000000000000;946.000000000000;980.000000000000;949.000000000000;760.000000000000;706.000000000000;751.000000000000;847.000000000000;844.000000000000;727.000000000000;574.000000000000;658.000000000000;865.000000000000;893.000000000000;768.000000000000;889.000000000000;1098.00000000000;1382.00000000000;1476.00000000000;1420.00000000000;1382.00000000000;1499.00000000000;1555.00000000000;1677.00000000000;1691.00000000000;1596.00000000000;1657.00000000000;1690.00000000000;1737.00000000000;1740.00000000000;1754.00000000000;1798.00000000000;1848.00000000000;1864.00000000000;1871.00000000000;1913.00000000000;1929.00000000000;2037.00000000000;2099.00000000000;2077.00000000000;2092.00000000000;2110.00000000000;2137.00000000000;2134.00000000000;2110.00000000000;2174.00000000000;2105.00000000000;2120.00000000000;2120.00000000000;2163.00000000000;2105.00000000000;2057.00000000000;2004.00000000000;1983.00000000000;1945.00000000000;2059.00000000000;1990.00000000000;1908.00000000000;1954.00000000000;1992.00000000000;1906.00000000000;1875.00000000000;1860.00000000000;1791.00000000000;1886.00000000000;1976.00000000000;1768.00000000000;1689.00000000000;1542.00000000000;1634.00000000000;1660.00000000000;1368.00000000000;1259.00000000000;1279.00000000000;1115.00000000000;883.000000000000;576.000000000000;374.000000000000;421.000000000000;384.000000000000;145.000000000000;177.000000000000;149.000000000000;622.000000000000;525.000000000000;368.000000000000;574.000000000000;857.000000000000;987.000000000000;897.000000000000;739.000000000000;709.000000000000;732.000000000000;919.000000000000;910.000000000000;951.000000000000;890.000000000000;874.000000000000;895.000000000000;928.000000000000;925.000000000000;955.000000000000;953.000000000000;935.000000000000;974.000000000000;1017.00000000000;1031.00000000000;985.000000000000;1018.00000000000;1013.00000000000;1011.00000000000;1034.00000000000;1055.00000000000;1018.00000000000;1026.00000000000;998.000000000000;966.000000000000;983.000000000000;1010.00000000000;1007.00000000000;1008.00000000000;999.000000000000
Gyro Y : 2245.00000000000;2273.00000000000;2268.00000000000;2262.00000000000;2287.00000000000;2269.00000000000;2289.00000000000;2263.00000000000;2271.00000000000;2286.00000000000;2285.00000000000;2268.00000000000;2282.00000000000;2238.00000000000;2291.00000000000;2290.00000000000;2297.00000000000;2282.00000000000;2286.00000000000;2305.00000000000;2298.00000000000;2305.00000000000;2314.00000000000;2302.00000000000;2304.00000000000;2278.00000000000;2277.00000000000;2283.00000000000;2266.00000000000;2220.00000000000;2154.00000000000;2146.00000000000;2207.00000000000;2142.00000000000;2059.00000000000;1930.00000000000;1768.00000000000;1811.00000000000;1858.00000000000;1814.00000000000;1810.00000000000;1880.00000000000;1815.00000000000;1855.00000000000;1719.00000000000;1733.00000000000;1819.00000000000;1929.00000000000;2009.00000000000;1993.00000000000;2038.00000000000;2061.00000000000;1997.00000000000;1987.00000000000;2043.00000000000;2048.00000000000;2054.00000000000;1992.00000000000;1998.00000000000;1959.00000000000;1967.00000000000;1860.00000000000;1901.00000000000;1879.00000000000;1875.00000000000;1865.00000000000;1766.00000000000;1791.00000000000;1785.00000000000;1730.00000000000;1685.00000000000;1617.00000000000;1628.00000000000;1591.00000000000;1540.00000000000;1522.00000000000;1520.00000000000;1537.00000000000;1525.00000000000;1525.00000000000;1560.00000000000;1567.00000000000;1643.00000000000;1594.00000000000;1523.00000000000;1615.00000000000;1607.00000000000;1658.00000000000;1715.00000000000;1568.00000000000;1622.00000000000;1739.00000000000;1733.00000000000;1691.00000000000;1823.00000000000;1842.00000000000;1886.00000000000;1947.00000000000;1787.00000000000;1700.00000000000;1932.00000000000;2145.00000000000;1868.00000000000;1634.00000000000;1687.00000000000;1965.00000000000;2155.00000000000;1940.00000000000;1843.00000000000;1970.00000000000;2043.00000000000;2275.00000000000;2253.00000000000;2223.00000000000;2117.00000000000;2203.00000000000;2239.00000000000;2212.00000000000;2205.00000000000;2249.00000000000;2301.00000000000;2315.00000000000;2331.00000000000;2275.00000000000;2235.00000000000;2272.00000000000;2305.00000000000;2332.00000000000;2341.00000000000;2347.00000000000;2360.00000000000;2345.00000000000;2313.00000000000;2320.00000000000;2350.00000000000;2326.00000000000;2313.00000000000;2325.00000000000;2323.00000000000;2307.00000000000;2287.00000000000;2310.00000000000;2278.00000000000;2306.00000000000;2290.00000000000;2285.00000000000;2296.00000000000;2292.00000000000;2266.00000000000;2274.00000000000
Gyro Z : 1782.00000000000;1803.00000000000;1785.00000000000;1803.00000000000;1777.00000000000;1802.00000000000;1830.00000000000;1814.00000000000;1799.00000000000;1810.00000000000;1819.00000000000;1815.00000000000;1801.00000000000;1796.00000000000;1840.00000000000;1815.00000000000;1819.00000000000;1792.00000000000;1797.00000000000;1767.00000000000;1781.00000000000;1782.00000000000;1786.00000000000;1798.00000000000;1769.00000000000;1769.00000000000;1767.00000000000;1726.00000000000;1761.00000000000;1700.00000000000;1681.00000000000;1612.00000000000;1582.00000000000;1529.00000000000;1481.00000000000;1342.00000000000;1234.00000000000;1007.00000000000;738.000000000000;591.000000000000;500.000000000000;403.000000000000;182.000000000000;47.0000000000000;24.0000000000000;47.0000000000000;186.000000000000;199.000000000000;174.000000000000;167.000000000000;311.000000000000;525.000000000000;726.000000000000;678.000000000000;708.000000000000;860.000000000000;1052.00000000000;1181.00000000000;1249.00000000000;1332.00000000000;1494.00000000000;1592.00000000000;1732.00000000000;1836.00000000000;1920.00000000000;2107.00000000000;2180.00000000000;2265.00000000000;2278.00000000000;2314.00000000000;2401.00000000000;2432.00000000000;2446.00000000000;2424.00000000000;2361.00000000000;2314.00000000000;2310.00000000000;2238.00000000000;2162.00000000000;2034.00000000000;1980.00000000000;1946.00000000000;1925.00000000000;1913.00000000000;1832.00000000000;1751.00000000000;1710.00000000000;1645.00000000000;1623.00000000000;1601.00000000000;1554.00000000000;1503.00000000000;1417.00000000000;1309.00000000000;1250.00000000000;1223.00000000000;1173.00000000000;1080.00000000000;954.000000000000;918.000000000000;923.000000000000;873.000000000000;685.000000000000;786.000000000000;884.000000000000;934.000000000000;1009.00000000000;1053.00000000000;1185.00000000000;1333.00000000000;1403.00000000000;1677.00000000000;1684.00000000000;1614.00000000000;1812.00000000000;1955.00000000000;2048.00000000000;1949.00000000000;1845.00000000000;1843.00000000000;1882.00000000000;1962.00000000000;1922.00000000000;1885.00000000000;1825.00000000000;1828.00000000000;1881.00000000000;1882.00000000000;1879.00000000000;1865.00000000000;1820.00000000000;1759.00000000000;1775.00000000000;1794.00000000000;1846.00000000000;1793.00000000000;1806.00000000000;1800.00000000000;1797.00000000000;1814.00000000000;1830.00000000000;1818.00000000000;1800.00000000000;1807.00000000000;1829.00000000000;1826.00000000000;1850.00000000000;1829.00000000000;1836.00000000000;1833.00000000000
