COMMAND 4 SAMPLE 1
Accel X : 985.000000000000;978.000000000000;996.000000000000;984.000000000000;981.000000000000;992.000000000000;980.000000000000;993.000000000000;969.000000000000;952.000000000000;988.000000000000;973.000000000000;982.000000000000;986.000000000000;1009.00000000000;981.000000000000;988.000000000000;1001.00000000000;982.000000000000;996.000000000000;990.000000000000;989.000000000000;990.000000000000;965.000000000000;982.000000000000;968.000000000000;997.000000000000;983.000000000000;975.000000000000;1000.00000000000;970.000000000000;1010.00000000000;976.000000000000;976.000000000000;995.000000000000;969.000000000000;1007.00000000000;989.000000000000;988.000000000000;1051.00000000000;1120.00000000000;1109.00000000000;1050.00000000000;952.000000000000;1057.00000000000;1359.00000000000;1427.00000000000;1361.00000000000;1372.00000000000;1679.00000000000;1739.00000000000;1686.00000000000;1709.00000000000;1665.00000000000;1740.00000000000;1855.00000000000;1893.00000000000;1821.00000000000;1877.00000000000;1889.00000000000;1961.00000000000;1972.00000000000;2057.00000000000;2103.00000000000;1976.00000000000;1953.00000000000;1974.00000000000;2095.00000000000;2113.00000000000;2069.00000000000;2118.00000000000;2089.00000000000;2120.00000000000;2124.00000000000;2127.00000000000;2063.00000000000;2110.00000000000;2109.00000000000;2084.00000000000;2026.00000000000;2046.00000000000;2098.00000000000;2063.00000000000;2025.00000000000;1994.00000000000;2016.00000000000;1977.00000000000;2014.00000000000;2053.00000000000;2087.00000000000;2122.00000000000;1965.00000000000;1810.00000000000;1653.00000000000;1538.00000000000;1601.00000000000;1619.00000000000;1448.00000000000;1283.00000000000;1249.00000000000;1208.00000000000;1353.00000000000;1379.00000000000;1457.00000000000;1376.00000000000;1429.00000000000;1383.00000000000;1384.00000000000;1391.00000000000;1294.00000000000;1243.00000000000;1129.00000000000;1069.00000000000;1050.00000000000;1084.00000000000;1039.00000000000;997.000000000000;978.000000000000;962.000000000000;961.000000000000;981.000000000000;993.000000000000;998.000000000000;1004.00000000000;1007.00000000000;996.000000000000;1027.00000000000;963.000000000000;965.000000000000;978.000000000000;1001.00000000000;991.000000000000;956.000000000000;963.000000000000;967.000000000000;975.000000000000;949.000000000000;979.000000000000;981.000000000000;974.000000000000;977.000000000000;997.000000000000;1010.00000000000;991.000000000000;978.000000000000;986.000000000000;984.000000000000;1009.00000000000;998.000000000000;962.000000000000
Accel Y : 2057.00000000000;2060.00000000000;2039.00000000000;2058.00000000000;2043.00000000000;2042.00000000000;2053.00000000000;2066.00000000000;2076.00000000000;2052.00000000000;2061.00000000000;2031.00000000000;2036.00000000000;2049.00000000000;2037.00000000000;2039.00000000000;2035.00000000000;2034.00000000000;2012.00000000000;2016.00000000000;2043.00000000000;2014.00000000000;2049.00000000000;2038.00000000000;2033.00000000000;2033.00000000000;2055.00000000000;2039.00000000000;2045.00000000000;2045.00000000000;2035.00000000000;2039.00000000000;2047.00000000000;2035.00000000000;2050.00000000000;2057.00000000000;2027.00000000000;2030.00000000000;2025.00000000000;2008.00000000000;2035.00000000000;2031.00000000000;2002.00000000000;1991.00000000000;1972.00000000000;1940.00000000000;1935.00000000000;1974.00000000000;2021.00000000000;2039.00000000000;2132.00000000000;2187.00000000000;2267.00000000000;2343.00000000000;2412.00000000000;2531.00000000000;2677.00000000000;2800.00000000000;2939.00000000000;3207.00000000000;3503.00000000000;3758.00000000000;3766.00000000000;3709.00000000000;3537.00000000000;3461.00000000000;3495.00000000000;3446.00000000000;3351.00000000000;3306.00000000000;3289.00000000000;3268.00000000000;3296.00000000000;3282.00000000000;3311.00000000000;3316.00000000000;3308.00000000000;3321.00000000000;3336.00000000000;3322.00000000000;3265.00000000000;3251.00000000000;3289.00000000000;3323.00000000000;3344.00000000000;3345.00000000000;3355.00000000000;3382.00000000000;3432.00000000000;3449.00000000000;3433.00000000000;3441.00000000000;3428.00000000000;3395.00000000000;3368.00000000000;3308.00000000000;3194.00000000000;3031.00000000000;2861.00000000000;2733.00000000000;2581.00000000000;2488.00000000000;2413.00000000000;2314.00000000000;2269.00000000000;2235.00000000000;2235.00000000000;2206.00000000000;2168.00000000000;2149.00000000000;2163.00000000000;2155.00000000000;2159.00000000000;2170.00000000000;2176.00000000000;2139.00000000000;2158.00000000000;2159.00000000000;2150.00000000000;2159.00000000000;2131.00000000000;2155.00000000000;2144.00000000000;2163.00000000000;2173.00000000000;2168.00000000000;2175.00000000000;2174.00000000000;2175.00000000000;2185.00000000000;2223.00000000000;2215.00000000000;2219.00000000000;2218.00000000000;2218.00000000000;2217.00000000000;2223.00000000000;2207.00000000000;2216.00000000000;2233.00000000000;2225.00000000000;2226.00000000000;2219.00000000000;2221.00000000000;2221.00000000000;2241.00000000000;2209.00000000000;2216.00000000000;2220.00000000000;2227.00000000000
Accel Z : 1733.00000000000;1772.00000000000;1739.00000000000;1742.00000000000;1740.00000000000;1737.00000000000;1742.00000000000;1728.00000000000;1751.00000000000;1763.00000000000;1760.00000000000;1725.00000000000;1766.00000000000;1744.00000000000;1767.00000000000;1752.00000000000;1769.00000000000;1747.00000000000;1740.00000000000;1746.00000000000;1743.00000000000;1759.00000000000;1727.00000000000;1745.00000000000;1736.00000000000;1721.00000000000;1747.00000000000;1757.00000000000;1766.00000000000;1769.00000000000;1755.00000000000;1765.00000000000;1769.00000000000;1792.00000000000;1791.00000000000;1823.00000000000;1803.00000000000;1809.00000000000;1803.00000000000;1858.00000000000;1862.00000000000;1836.00000000000;1871.00000000000;1839.00000000000;1875.00000000000;1940.00000000000;1927.00000000000;1899.00000000000;1818.00000000000;1953.00000000000;1997.00000000000;2003.00000000000;2090.00000000000;2033.00000000000;2096.00000000000;2176.00000000000;2266.00000000000;2141.00000000000;2103.00000000000;2091.00000000000;2176.00000000000;2280.00000000000;2267.00000000000;2227.00000000000;2094.00000000000;1991.00000000000;1883.00000000000;1897.00000000000;1882.00000000000;1889.00000000000;1893.00000000000;1892.00000000000;1907.00000000000;1945.00000000000;1961.00000000000;1974.00000000000;1950.00000000000;1999.00000000000;2011.00000000000;2028.00000000000;2052.00000000000;2039.00000000000;2076.00000000000;2124.00000000000;2061.00000000000;2006.00000000000;2021.00000000000;2074.00000000000;2110.00000000000;2109.00000000000;2118.00000000000;2047.00000000000;2001.00000000000;2011.00000000000;1980.00000000000;2060.00000000000;1949.00000000000;1813.00000000000;1716.00000000000;1658.00000000000;1663.00000000000;1696.00000000000;1665.00000000000;1659.00000000000;1615.00000000000;1651.00000000000;1657.00000000000;1630.00000000000;1604.00000000000;1639.00000000000;1651.00000000000;1639.00000000000;1637.00000000000;1616.00000000000;1653.00000000000;1640.00000000000;1624.00000000000;1610.00000000000;1626.00000000000;1623.00000000000;1612.00000000000;1627.00000000000;1633.00000000000;1664.00000000000;1634.00000000000;1611.00000000000;1656.00000000000;1646.00000000000;1645.00000000000;1648.00000000000;1645.00000000000;1653.00000000000;1638.00000000000;1656.00000000000;1639.00000000000;1644.00000000000;1650.00000000000;1669.00000000000;1661.00000000000;1666.00000000000;1683.00000000000;1669.00000000000;1687.00000000000;1667.00000000000;1691.00000000000;1700.00000000000;1674.00000000000;1644.00000000000;1686.00000000000;1682.00000000000
Gyro X : 985.000000000000;978.000000000000;996.000000000000;984.000000000000;981.000000000000;992.000000000000;980.000000000000;993.000000000000;969.000000000000;952.000000000000;988.000000000000;973.000000000000;982.000000000000;986.000000000000;1009.00000000000;981.000000000000;988.000000000000;1001.00000000000;982.000000000000;996.000000000000;990.000000000000;989.000000000000;990.000000000000;965.000000000000;982.000000000000;968.000000000000;997.000000000000;983.000000000000;975.000000000000;1000.00000000000;970.000000000000;1010.00000000000;976.000000000000;976.000000000000;995.000000000000;969.000000000000;1007.00000000000;989.000000000000;988.000000000000;1051.00000000000;1120.00000000000;1109.00000000000;1050.00000000000;952.000000000000;1057.00000000000;1359.00000000000;1427.00000000000;1361.00000000000;1372.00000000000;1679.00000000000;1739.00000000000;1686.00000000000;1709.00000000000;1665.00000000000;1740.00000000000;1855.00000000000;1893.00000000000;1821.00000000000;1877.00000000000;1889.00000000000;1961.00000000000;1972.00000000000;2057.00000000000;2103.00000000000;1976.00000000000;1953.00000000000;1974.00000000000;2095.00000000000;2113.00000000000;2069.00000000000;2118.00000000000;2089.00000000000;2120.00000000000;2124.00000000000;2127.00000000000;2063.00000000000;2110.00000000000;2109.00000000000;2084.00000000000;2026.00000000000;2046.00000000000;2098.00000000000;2063.00000000000;2025.00000000000;1994.00000000000;2016.00000000000;1977.00000000000;2014.00000000000;2053.00000000000;2087.00000000000;2122.00000000000;1965.00000000000;1810.00000000000;1653.00000000000;1538.00000000000;1601.00000000000;1619.00000000000;1448.00000000000;1283.00000000000;1249.00000000000;1208.00000000000;1353.00000000000;1379.00000000000;1457.00000000000;1376.00000000000;1429.00000000000;1383.00000000000;1384.00000000000;1391.00000000000;1294.00000000000;1243.00000000000;1129.00000000000;1069.00000000000;1050.00000000000;1084.00000000000;1039.00000000000;997.000000000000;978.000000000000;962.000000000000;961.000000000000;981.000000000000;993.000000000000;998.000000000000;1004.00000000000;1007.00000000000;996.000000000000;1027.00000000000;963.000000000000;965.000000000000;978.000000000000;1001.00000000000;991.000000000000;956.000000000000;963.000000000000;967.000000000000;975.000000000000;949.000000000000;979.000000000000;981.000000000000;974.000000000000;977.000000000000;997.000000000000;1010.00000000000;991.000000000000;978.000000000000;986.000000000000;984.000000000000;1009.00000000000;998.000000000000;962.000000000000
Gyro Y : 2057.00000000000;2060.00000000000;2039.00000000000;2058.00000000000;2043.00000000000;2042.00000000000;2053.00000000000;2066.00000000000;2076.00000000000;2052.00000000000;2061.00000000000;2031.00000000000;2036.00000000000;2049.00000000000;2037.00000000000;2039.00000000000;2035.00000000000;2034.00000000000;2012.00000000000;2016.00000000000;2043.00000000000;2014.00000000000;2049.00000000000;2038.00000000000;2033.00000000000;2033.00000000000;2055.00000000000;2039.00000000000;2045.00000000000;2045.00000000000;2035.00000000000;2039.00000000000;2047.00000000000;2035.00000000000;2050.00000000000;2057.00000000000;2027.00000000000;2030.00000000000;2025.00000000000;2008.00000000000;2035.00000000000;2031.00000000000;2002.00000000000;1991.00000000000;1972.00000000000;1940.00000000000;1935.00000000000;1974.00000000000;2021.00000000000;2039.00000000000;2132.00000000000;2187.00000000000;2267.00000000000;2343.00000000000;2412.00000000000;2531.00000000000;2677.00000000000;2800.00000000000;2939.00000000000;3207.00000000000;3503.00000000000;3758.00000000000;3766.00000000000;3709.00000000000;3537.00000000000;3461.00000000000;3495.00000000000;3446.00000000000;3351.00000000000;3306.00000000000;3289.00000000000;3268.00000000000;3296.00000000000;3282.00000000000;3311.00000000000;3316.00000000000;3308.00000000000;3321.00000000000;3336.00000000000;3322.00000000000;3265.00000000000;3251.00000000000;3289.00000000000;3323.00000000000;3344.00000000000;3345.00000000000;3355.00000000000;3382.00000000000;3432.00000000000;3449.00000000000;3433.00000000000;3441.00000000000;3428.00000000000;3395.00000000000;3368.00000000000;3308.00000000000;3194.00000000000;3031.00000000000;2861.00000000000;2733.00000000000;2581.00000000000;2488.00000000000;2413.00000000000;2314.00000000000;2269.00000000000;2235.00000000000;2235.00000000000;2206.00000000000;2168.00000000000;2149.00000000000;2163.00000000000;2155.00000000000;2159.00000000000;2170.00000000000;2176.00000000000;2139.00000000000;2158.00000000000;2159.00000000000;2150.00000000000;2159.00000000000;2131.00000000000;2155.00000000000;2144.00000000000;2163.00000000000;2173.00000000000;2168.00000000000;2175.00000000000;2174.00000000000;2175.00000000000;2185.00000000000;2223.00000000000;2215.00000000000;2219.00000000000;2218.00000000000;2218.00000000000;2217.00000000000;2223.00000000000;2207.00000000000;2216.00000000000;2233.00000000000;2225.00000000000;2226.00000000000;2219.00000000000;2221.00000000000;2221.00000000000;2241.00000000000;2209.00000000000;2216.00000000000;2220.00000000000;2227.00000000000
Gyro Z : 1733.00000000000;1772.00000000000;1739.00000000000;1742.00000000000;1740.00000000000;1737.00000000000;1742.00000000000;1728.00000000000;1751.00000000000;1763.00000000000;1760.00000000000;1725.00000000000;1766.00000000000;1744.00000000000;1767.00000000000;1752.00000000000;1769.00000000000;1747.00000000000;1740.00000000000;1746.00000000000;1743.00000000000;1759.00000000000;1727.00000000000;1745.00000000000;1736.00000000000;1721.00000000000;1747.00000000000;1757.00000000000;1766.00000000000;1769.00000000000;1755.00000000000;1765.00000000000;1769.00000000000;1792.00000000000;1791.00000000000;1823.00000000000;1803.00000000000;1809.00000000000;1803.00000000000;1858.00000000000;1862.00000000000;1836.00000000000;1871.00000000000;1839.00000000000;1875.00000000000;1940.00000000000;1927.00000000000;1899.00000000000;1818.00000000000;1953.00000000000;1997.00000000000;2003.00000000000;2090.00000000000;2033.00000000000;2096.00000000000;2176.00000000000;2266.00000000000;2141.00000000000;2103.00000000000;2091.00000000000;2176.00000000000;2280.00000000000;2267.00000000000;2227.00000000000;2094.00000000000;1991.00000000000;1883.00000000000;1897.00000000000;1882.00000000000;1889.00000000000;1893.00000000000;1892.00000000000;1907.00000000000;1945.00000000000;1961.00000000000;1974.00000000000;1950.00000000000;1999.00000000000;2011.00000000000;2028.00000000000;2052.00000000000;2039.00000000000;2076.00000000000;2124.00000000000;2061.00000000000;2006.00000000000;2021.00000000000;2074.00000000000;2110.00000000000;2109.00000000000;2118.00000000000;2047.00000000000;2001.00000000000;2011.00000000000;1980.00000000000;2060.00000000000;1949.00000000000;1813.00000000000;1716.00000000000;1658.00000000000;1663.00000000000;1696.00000000000;1665.00000000000;1659.00000000000;1615.00000000000;1651.00000000000;1657.00000000000;1630.00000000000;1604.00000000000;1639.00000000000;1651.00000000000;1639.00000000000;1637.00000000000;1616.00000000000;1653.00000000000;1640.00000000000;1624.00000000000;1610.00000000000;1626.00000000000;1623.00000000000;1612.00000000000;1627.00000000000;1633.00000000000;1664.00000000000;1634.00000000000;1611.00000000000;1656.00000000000;1646.00000000000;1645.00000000000;1648.00000000000;1645.00000000000;1653.00000000000;1638.00000000000;1656.00000000000;1639.00000000000;1644.00000000000;1650.00000000000;1669.00000000000;1661.00000000000;1666.00000000000;1683.00000000000;1669.00000000000;1687.00000000000;1667.00000000000;1691.00000000000;1700.00000000000;1674.00000000000;1644.00000000000;1686.00000000000;1682.00000000000
