COMMAND 4 SAMPLE 1
Accel X : 1026.00000000000;1062.00000000000;1007.00000000000;1019.00000000000;1034.00000000000;1034.00000000000;1050.00000000000;1048.00000000000;1054.00000000000;1043.00000000000;1020.00000000000;1033.00000000000;994.000000000000;1006.00000000000;1021.00000000000;1018.00000000000;1030.00000000000;988.000000000000;1011.00000000000;1002.00000000000;1020.00000000000;1011.00000000000;1010.00000000000;975.000000000000;990.000000000000;986.000000000000;1034.00000000000;1040.00000000000;986.000000000000;1027.00000000000;970.000000000000;973.000000000000;1019.00000000000;1029.00000000000;1040.00000000000;1064.00000000000;1029.00000000000;1026.00000000000;1027.00000000000;1078.00000000000;1112.00000000000;1140.00000000000;1109.00000000000;1113.00000000000;1206.00000000000;1315.00000000000;1320.00000000000;1461.00000000000;1641.00000000000;1861.00000000000;1749.00000000000;1666.00000000000;1711.00000000000;1703.00000000000;1711.00000000000;1773.00000000000;1783.00000000000;1790.00000000000;1753.00000000000;1691.00000000000;1706.00000000000;1761.00000000000;1772.00000000000;1781.00000000000;1863.00000000000;1868.00000000000;1884.00000000000;1882.00000000000;1975.00000000000;2034.00000000000;2198.00000000000;2094.00000000000;2135.00000000000;2216.00000000000;2236.00000000000;2210.00000000000;2102.00000000000;2064.00000000000;2054.00000000000;2059.00000000000;2088.00000000000;2093.00000000000;2137.00000000000;2070.00000000000;2074.00000000000;2076.00000000000;2026.00000000000;2062.00000000000;2048.00000000000;2035.00000000000;2014.00000000000;1764.00000000000;1528.00000000000;1512.00000000000;1677.00000000000;1700.00000000000;1488.00000000000;1224.00000000000;969.000000000000;1242.00000000000;1384.00000000000;1293.00000000000;1249.00000000000;1239.00000000000;1181.00000000000;1198.00000000000;1223.00000000000;1321.00000000000;1319.00000000000;1329.00000000000;1298.00000000000;1231.00000000000;1218.00000000000;1197.00000000000;1143.00000000000;1139.00000000000;1053.00000000000;1032.00000000000;1057.00000000000;1064.00000000000;1000.00000000000;1036.00000000000;1002.00000000000;1030.00000000000;1004.00000000000;1039.00000000000;1056.00000000000;1037.00000000000;1050.00000000000;970.000000000000;966.000000000000;1025.00000000000;1025.00000000000;1026.00000000000;998.000000000000;977.000000000000;995.000000000000;990.000000000000;1017.00000000000;1000.00000000000;948.000000000000;960.000000000000;960.000000000000;979.000000000000;1004.00000000000;1025.00000000000;1006.00000000000;975.000000000000;983.000000000000;1003.00000000000
Accel Y : 1909.00000000000;1890.00000000000;1925.00000000000;1903.00000000000;1921.00000000000;1902.00000000000;1925.00000000000;1910.00000000000;1913.00000000000;1896.00000000000;1927.00000000000;1912.00000000000;1908.00000000000;1899.00000000000;1910.00000000000;1872.00000000000;1905.00000000000;1917.00000000000;1903.00000000000;1887.00000000000;1896.00000000000;1910.00000000000;1901.00000000000;1926.00000000000;1929.00000000000;1897.00000000000;1919.00000000000;1887.00000000000;1896.00000000000;1912.00000000000;1907.00000000000;1922.00000000000;1903.00000000000;1903.00000000000;1918.00000000000;1919.00000000000;1917.00000000000;1918.00000000000;1924.00000000000;1911.00000000000;1870.00000000000;1907.00000000000;1879.00000000000;1928.00000000000;1971.00000000000;1936.00000000000;1924.00000000000;1991.00000000000;2023.00000000000;2039.00000000000;2101.00000000000;2243.00000000000;2320.00000000000;2386.00000000000;2436.00000000000;2460.00000000000;2583.00000000000;2675.00000000000;2763.00000000000;2938.00000000000;3037.00000000000;3271.00000000000;3443.00000000000;3578.00000000000;3703.00000000000;3766.00000000000;3750.00000000000;3587.00000000000;3520.00000000000;3509.00000000000;3420.00000000000;3409.00000000000;3371.00000000000;3308.00000000000;3344.00000000000;3326.00000000000;3315.00000000000;3275.00000000000;3251.00000000000;3243.00000000000;3305.00000000000;3286.00000000000;3264.00000000000;3291.00000000000;3315.00000000000;3325.00000000000;3308.00000000000;3251.00000000000;3247.00000000000;3266.00000000000;3249.00000000000;3288.00000000000;3311.00000000000;3310.00000000000;3241.00000000000;3168.00000000000;3085.00000000000;3053.00000000000;3019.00000000000;2974.00000000000;2887.00000000000;2765.00000000000;2722.00000000000;2661.00000000000;2574.00000000000;2495.00000000000;2441.00000000000;2374.00000000000;2277.00000000000;2295.00000000000;2255.00000000000;2291.00000000000;2247.00000000000;2204.00000000000;2175.00000000000;2187.00000000000;2180.00000000000;2176.00000000000;2131.00000000000;2117.00000000000;2112.00000000000;2106.00000000000;2091.00000000000;2078.00000000000;2057.00000000000;2066.00000000000;2055.00000000000;2041.00000000000;2066.00000000000;2065.00000000000;2039.00000000000;2051.00000000000;2078.00000000000;2084.00000000000;2078.00000000000;2077.00000000000;2092.00000000000;2093.00000000000;2092.00000000000;2106.00000000000;2100.00000000000;2150.00000000000;2123.00000000000;2133.00000000000;2101.00000000000;2103.00000000000;2108.00000000000;2109.00000000000;2103.00000000000;2097.00000000000
Accel Z : 1769.00000000000;1789.00000000000;1801.00000000000;1793.00000000000;1775.00000000000;1809.00000000000;1795.00000000000;1770.00000000000;1797.00000000000;1765.00000000000;1773.00000000000;1762.00000000000;1752.00000000000;1780.00000000000;1763.00000000000;1766.00000000000;1747.00000000000;1764.00000000000;1766.00000000000;1785.00000000000;1772.00000000000;1778.00000000000;1789.00000000000;1761.00000000000;1794.00000000000;1784.00000000000;1776.00000000000;1779.00000000000;1791.00000000000;1794.00000000000;1790.00000000000;1791.00000000000;1816.00000000000;1814.00000000000;1793.00000000000;1816.00000000000;1821.00000000000;1820.00000000000;1843.00000000000;1833.00000000000;1882.00000000000;1886.00000000000;1853.00000000000;1906.00000000000;1959.00000000000;1938.00000000000;1863.00000000000;1926.00000000000;1957.00000000000;2037.00000000000;2009.00000000000;2025.00000000000;2120.00000000000;2125.00000000000;2158.00000000000;2103.00000000000;2179.00000000000;2322.00000000000;2333.00000000000;2305.00000000000;2151.00000000000;2279.00000000000;2296.00000000000;2337.00000000000;2251.00000000000;2176.00000000000;2233.00000000000;2230.00000000000;2196.00000000000;2081.00000000000;1893.00000000000;1906.00000000000;2032.00000000000;2027.00000000000;1990.00000000000;1932.00000000000;1942.00000000000;1994.00000000000;1962.00000000000;1991.00000000000;2016.00000000000;2057.00000000000;2081.00000000000;2090.00000000000;2084.00000000000;1990.00000000000;1965.00000000000;2070.00000000000;2092.00000000000;2027.00000000000;1915.00000000000;1883.00000000000;1958.00000000000;1923.00000000000;1938.00000000000;1896.00000000000;1767.00000000000;1716.00000000000;1677.00000000000;1959.00000000000;1855.00000000000;1832.00000000000;1736.00000000000;1687.00000000000;1687.00000000000;1750.00000000000;1731.00000000000;1717.00000000000;1694.00000000000;1673.00000000000;1672.00000000000;1676.00000000000;1701.00000000000;1681.00000000000;1658.00000000000;1672.00000000000;1633.00000000000;1637.00000000000;1661.00000000000;1637.00000000000;1622.00000000000;1635.00000000000;1662.00000000000;1651.00000000000;1655.00000000000;1655.00000000000;1671.00000000000;1681.00000000000;1658.00000000000;1646.00000000000;1638.00000000000;1682.00000000000;1693.00000000000;1656.00000000000;1684.00000000000;1673.00000000000;1672.00000000000;1668.00000000000;1671.00000000000;1663.00000000000;1679.00000000000;1676.00000000000;1690.00000000000;1679.00000000000;1667.00000000000;1668.00000000000;1677.00000000000;1690.00000000000;1679.00000000000;1671.00000000000
Gyro X : 1026.00000000000;1062.00000000000;1007.00000000000;1019.00000000000;1034.00000000000;1034.00000000000;1050.00000000000;1048.00000000000;1054.00000000000;1043.00000000000;1020.00000000000;1033.00000000000;994.000000000000;1006.00000000000;1021.00000000000;1018.00000000000;1030.00000000000;988.000000000000;1011.00000000000;1002.00000000000;1020.00000000000;1011.00000000000;1010.00000000000;975.000000000000;990.000000000000;986.000000000000;1034.00000000000;1040.00000000000;986.000000000000;1027.00000000000;970.000000000000;973.000000000000;1019.00000000000;1029.00000000000;1040.00000000000;1064.00000000000;1029.00000000000;1026.00000000000;1027.00000000000;1078.00000000000;1112.00000000000;1140.00000000000;1109.00000000000;1113.00000000000;1206.00000000000;1315.00000000000;1320.00000000000;1461.00000000000;1641.00000000000;1861.00000000000;1749.00000000000;1666.00000000000;1711.00000000000;1703.00000000000;1711.00000000000;1773.00000000000;1783.00000000000;1790.00000000000;1753.00000000000;1691.00000000000;1706.00000000000;1761.00000000000;1772.00000000000;1781.00000000000;1863.00000000000;1868.00000000000;1884.00000000000;1882.00000000000;1975.00000000000;2034.00000000000;2198.00000000000;2094.00000000000;2135.00000000000;2216.00000000000;2236.00000000000;2210.00000000000;2102.00000000000;2064.00000000000;2054.00000000000;2059.00000000000;2088.00000000000;2093.00000000000;2137.00000000000;2070.00000000000;2074.00000000000;2076.00000000000;2026.00000000000;2062.00000000000;2048.00000000000;2035.00000000000;2014.00000000000;1764.00000000000;1528.00000000000;1512.00000000000;1677.00000000000;1700.00000000000;1488.00000000000;1224.00000000000;969.000000000000;1242.00000000000;1384.00000000000;1293.00000000000;1249.00000000000;1239.00000000000;1181.00000000000;1198.00000000000;1223.00000000000;1321.00000000000;1319.00000000000;1329.00000000000;1298.00000000000;1231.00000000000;1218.00000000000;1197.00000000000;1143.00000000000;1139.00000000000;1053.00000000000;1032.00000000000;1057.00000000000;1064.00000000000;1000.00000000000;1036.00000000000;1002.00000000000;1030.00000000000;1004.00000000000;1039.00000000000;1056.00000000000;1037.00000000000;1050.00000000000;970.000000000000;966.000000000000;1025.00000000000;1025.00000000000;1026.00000000000;998.000000000000;977.000000000000;995.000000000000;990.000000000000;1017.00000000000;1000.00000000000;948.000000000000;960.000000000000;960.000000000000;979.000000000000;1004.00000000000;1025.00000000000;1006.00000000000;975.000000000000;983.000000000000;1003.00000000000
Gyro Y : 1909.00000000000;1890.00000000000;1925.00000000000;1903.00000000000;1921.00000000000;1902.00000000000;1925.00000000000;1910.00000000000;1913.00000000000;1896.00000000000;1927.00000000000;1912.00000000000;1908.00000000000;1899.00000000000;1910.00000000000;1872.00000000000;1905.00000000000;1917.00000000000;1903.00000000000;1887.00000000000;1896.00000000000;1910.00000000000;1901.00000000000;1926.00000000000;1929.00000000000;1897.00000000000;1919.00000000000;1887.00000000000;1896.00000000000;1912.00000000000;1907.00000000000;1922.00000000000;1903.00000000000;1903.00000000000;1918.00000000000;1919.00000000000;1917.00000000000;1918.00000000000;1924.00000000000;1911.00000000000;1870.00000000000;1907.00000000000;1879.00000000000;1928.00000000000;1971.00000000000;1936.00000000000;1924.00000000000;1991.00000000000;2023.00000000000;2039.00000000000;2101.00000000000;2243.00000000000;2320.00000000000;2386.00000000000;2436.00000000000;2460.00000000000;2583.00000000000;2675.00000000000;2763.00000000000;2938.00000000000;3037.00000000000;3271.00000000000;3443.00000000000;3578.00000000000;3703.00000000000;3766.00000000000;3750.00000000000;3587.00000000000;3520.00000000000;3509.00000000000;3420.00000000000;3409.00000000000;3371.00000000000;3308.00000000000;3344.00000000000;3326.00000000000;3315.00000000000;3275.00000000000;3251.00000000000;3243.00000000000;3305.00000000000;3286.00000000000;3264.00000000000;3291.00000000000;3315.00000000000;3325.00000000000;3308.00000000000;3251.00000000000;3247.00000000000;3266.00000000000;3249.00000000000;3288.00000000000;3311.00000000000;3310.00000000000;3241.00000000000;3168.00000000000;3085.00000000000;3053.00000000000;3019.00000000000;2974.00000000000;2887.00000000000;2765.00000000000;2722.00000000000;2661.00000000000;2574.00000000000;2495.00000000000;2441.00000000000;2374.00000000000;2277.00000000000;2295.00000000000;2255.00000000000;2291.00000000000;2247.00000000000;2204.00000000000;2175.00000000000;2187.00000000000;2180.00000000000;2176.00000000000;2131.00000000000;2117.00000000000;2112.00000000000;2106.00000000000;2091.00000000000;2078.00000000000;2057.00000000000;2066.00000000000;2055.00000000000;2041.00000000000;2066.00000000000;2065.00000000000;2039.00000000000;2051.00000000000;2078.00000000000;2084.00000000000;2078.00000000000;2077.00000000000;2092.00000000000;2093.00000000000;2092.00000000000;2106.00000000000;2100.00000000000;2150.00000000000;2123.00000000000;2133.00000000000;2101.00000000000;2103.00000000000;2108.00000000000;2109.00000000000;2103.00000000000;2097.00000000000
Gyro Z : 1769.00000000000;1789.00000000000;1801.00000000000;1793.00000000000;1775.00000000000;1809.00000000000;1795.00000000000;1770.00000000000;1797.00000000000;1765.00000000000;1773.00000000000;1762.00000000000;1752.00000000000;1780.00000000000;1763.00000000000;1766.00000000000;1747.00000000000;1764.00000000000;1766.00000000000;1785.00000000000;1772.00000000000;1778.00000000000;1789.00000000000;1761.00000000000;1794.00000000000;1784.00000000000;1776.00000000000;1779.00000000000;1791.00000000000;1794.00000000000;1790.00000000000;1791.00000000000;1816.00000000000;1814.00000000000;1793.00000000000;1816.00000000000;1821.00000000000;1820.00000000000;1843.00000000000;1833.00000000000;1882.00000000000;1886.00000000000;1853.00000000000;1906.00000000000;1959.00000000000;1938.00000000000;1863.00000000000;1926.00000000000;1957.00000000000;2037.00000000000;2009.00000000000;2025.00000000000;2120.00000000000;2125.00000000000;2158.00000000000;2103.00000000000;2179.00000000000;2322.00000000000;2333.00000000000;2305.00000000000;2151.00000000000;2279.00000000000;2296.00000000000;2337.00000000000;2251.00000000000;2176.00000000000;2233.00000000000;2230.00000000000;2196.00000000000;2081.00000000000;1893.00000000000;1906.00000000000;2032.00000000000;2027.00000000000;1990.00000000000;1932.00000000000;1942.00000000000;1994.00000000000;1962.00000000000;1991.00000000000;2016.00000000000;2057.00000000000;2081.00000000000;2090.00000000000;2084.00000000000;1990.00000000000;1965.00000000000;2070.00000000000;2092.00000000000;2027.00000000000;1915.00000000000;1883.00000000000;1958.00000000000;1923.00000000000;1938.00000000000;1896.00000000000;1767.00000000000;1716.00000000000;1677.00000000000;1959.00000000000;1855.00000000000;1832.00000000000;1736.00000000000;1687.00000000000;1687.00000000000;1750.00000000000;1731.00000000000;1717.00000000000;1694.00000000000;1673.00000000000;1672.00000000000;1676.00000000000;1701.00000000000;1681.00000000000;1658.00000000000;1672.00000000000;1633.00000000000;1637.00000000000;1661.00000000000;1637.00000000000;1622.00000000000;1635.00000000000;1662.00000000000;1651.00000000000;1655.00000000000;1655.00000000000;1671.00000000000;1681.00000000000;1658.00000000000;1646.00000000000;1638.00000000000;1682.00000000000;1693.00000000000;1656.00000000000;1684.00000000000;1673.00000000000;1672.00000000000;1668.00000000000;1671.00000000000;1663.00000000000;1679.00000000000;1676.00000000000;1690.00000000000;1679.00000000000;1667.00000000000;1668.00000000000;1677.00000000000;1690.00000000000;1679.00000000000;1671.00000000000
