COMMAND 3 SAMPLE 1
Accel X : 986.000000000000;980.000000000000;1009.00000000000;1013.00000000000;992.000000000000;985.000000000000;1014.00000000000;1017.00000000000;997.000000000000;1010.00000000000;994.000000000000;1016.00000000000;988.000000000000;1017.00000000000;983.000000000000;1002.00000000000;994.000000000000;983.000000000000;995.000000000000;997.000000000000;989.000000000000;991.000000000000;998.000000000000;1005.00000000000;1013.00000000000;1009.00000000000;996.000000000000;1017.00000000000;974.000000000000;969.000000000000;963.000000000000;959.000000000000;969.000000000000;920.000000000000;865.000000000000;903.000000000000;981.000000000000;993.000000000000;1018.00000000000;722.000000000000;651.000000000000;788.000000000000;822.000000000000;522.000000000000;545.000000000000;601.000000000000;794.000000000000;868.000000000000;905.000000000000;958.000000000000;1024.00000000000;1292.00000000000;1557.00000000000;1533.00000000000;1454.00000000000;1368.00000000000;1552.00000000000;1868.00000000000;1587.00000000000;1622.00000000000;1651.00000000000;1689.00000000000;1771.00000000000;1811.00000000000;1847.00000000000;1903.00000000000;1992.00000000000;2096.00000000000;2117.00000000000;2188.00000000000;2139.00000000000;2182.00000000000;2197.00000000000;2132.00000000000;2107.00000000000;2073.00000000000;2084.00000000000;2076.00000000000;2019.00000000000;1974.00000000000;1931.00000000000;2037.00000000000;2001.00000000000;1938.00000000000;1805.00000000000;2021.00000000000;2029.00000000000;1970.00000000000;1863.00000000000;1870.00000000000;1987.00000000000;1847.00000000000;1585.00000000000;1544.00000000000;1490.00000000000;1286.00000000000;977.000000000000;709.000000000000;421.000000000000;29.0000000000000;14.0000000000000;12.0000000000000;12.0000000000000;12.0000000000000;14.0000000000000;178.000000000000;311.000000000000;356.000000000000;368.000000000000;486.000000000000;586.000000000000;882.000000000000;874.000000000000;893.000000000000;975.000000000000;923.000000000000;948.000000000000;951.000000000000;942.000000000000;1008.00000000000;990.000000000000;990.000000000000;976.000000000000;975.000000000000;984.000000000000;1005.00000000000;1027.00000000000;1032.00000000000;1046.00000000000;1041.00000000000;1019.00000000000;1011.00000000000;995.000000000000;1059.00000000000;1030.00000000000;1069.00000000000;1013.00000000000;1025.00000000000;993.000000000000;994.000000000000;1043.00000000000;1027.00000000000;1028.00000000000;984.000000000000;983.000000000000;990.000000000000;983.000000000000;988.000000000000;1017.00000000000;979.000000000000
Accel Y : 2332.00000000000;2367.00000000000;2346.00000000000;2353.00000000000;2351.00000000000;2363.00000000000;2330.00000000000;2341.00000000000;2356.00000000000;2343.00000000000;2346.00000000000;2333.00000000000;2333.00000000000;2347.00000000000;2348.00000000000;2342.00000000000;2352.00000000000;2350.00000000000;2353.00000000000;2350.00000000000;2377.00000000000;2328.00000000000;2358.00000000000;2359.00000000000;2337.00000000000;2345.00000000000;2353.00000000000;2340.00000000000;2327.00000000000;2310.00000000000;2358.00000000000;2319.00000000000;2329.00000000000;2304.00000000000;2302.00000000000;2303.00000000000;2221.00000000000;2177.00000000000;2169.00000000000;2072.00000000000;1993.00000000000;1873.00000000000;1751.00000000000;1671.00000000000;1620.00000000000;1541.00000000000;1418.00000000000;1347.00000000000;1410.00000000000;1641.00000000000;1745.00000000000;1847.00000000000;1876.00000000000;1977.00000000000;2007.00000000000;2007.00000000000;2081.00000000000;2152.00000000000;2135.00000000000;2144.00000000000;2164.00000000000;2220.00000000000;2329.00000000000;2260.00000000000;2164.00000000000;2236.00000000000;2179.00000000000;2082.00000000000;1965.00000000000;1892.00000000000;1755.00000000000;1684.00000000000;1603.00000000000;1535.00000000000;1490.00000000000;1513.00000000000;1487.00000000000;1501.00000000000;1416.00000000000;1380.00000000000;1472.00000000000;1600.00000000000;1762.00000000000;1736.00000000000;1757.00000000000;1840.00000000000;2048.00000000000;1939.00000000000;1927.00000000000;1977.00000000000;2111.00000000000;2208.00000000000;2207.00000000000;2052.00000000000;2003.00000000000;2103.00000000000;2273.00000000000;2047.00000000000;1484.00000000000;1558.00000000000;2167.00000000000;2069.00000000000;1721.00000000000;1640.00000000000;1824.00000000000;2053.00000000000;2107.00000000000;2044.00000000000;1996.00000000000;2018.00000000000;2054.00000000000;2063.00000000000;2061.00000000000;2031.00000000000;2019.00000000000;2125.00000000000;2104.00000000000;2098.00000000000;2068.00000000000;2083.00000000000;2085.00000000000;2107.00000000000;2129.00000000000;2129.00000000000;2134.00000000000;2123.00000000000;2118.00000000000;2127.00000000000;2163.00000000000;2128.00000000000;2152.00000000000;2124.00000000000;2123.00000000000;2128.00000000000;2125.00000000000;2119.00000000000;2114.00000000000;2135.00000000000;2114.00000000000;2120.00000000000;2113.00000000000;2118.00000000000;2110.00000000000;2106.00000000000;2128.00000000000;2115.00000000000;2137.00000000000;2107.00000000000;2092.00000000000;2131.00000000000
Accel Z : 1814.00000000000;1805.00000000000;1814.00000000000;1806.00000000000;1804.00000000000;1788.00000000000;1784.00000000000;1805.00000000000;1801.00000000000;1814.00000000000;1807.00000000000;1804.00000000000;1790.00000000000;1800.00000000000;1803.00000000000;1807.00000000000;1811.00000000000;1800.00000000000;1815.00000000000;1789.00000000000;1797.00000000000;1792.00000000000;1792.00000000000;1782.00000000000;1786.00000000000;1766.00000000000;1758.00000000000;1757.00000000000;1753.00000000000;1739.00000000000;1749.00000000000;1721.00000000000;1699.00000000000;1652.00000000000;1636.00000000000;1639.00000000000;1578.00000000000;1519.00000000000;1476.00000000000;1338.00000000000;1244.00000000000;1172.00000000000;995.000000000000;848.000000000000;803.000000000000;567.000000000000;468.000000000000;189.000000000000;27.0000000000000;23.0000000000000;26.0000000000000;38.0000000000000;23.0000000000000;24.0000000000000;71.0000000000000;177.000000000000;335.000000000000;583.000000000000;631.000000000000;807.000000000000;942.000000000000;954.000000000000;1050.00000000000;1203.00000000000;1436.00000000000;1542.00000000000;1765.00000000000;1869.00000000000;1889.00000000000;2033.00000000000;2137.00000000000;2207.00000000000;2251.00000000000;2170.00000000000;2166.00000000000;2143.00000000000;2096.00000000000;2125.00000000000;2081.00000000000;2044.00000000000;1935.00000000000;1858.00000000000;1723.00000000000;1787.00000000000;1692.00000000000;1675.00000000000;1639.00000000000;1683.00000000000;1636.00000000000;1630.00000000000;1637.00000000000;1686.00000000000;1533.00000000000;1458.00000000000;1388.00000000000;1660.00000000000;1772.00000000000;1681.00000000000;1412.00000000000;1333.00000000000;1889.00000000000;1962.00000000000;1720.00000000000;1867.00000000000;2123.00000000000;2153.00000000000;2114.00000000000;2001.00000000000;1985.00000000000;2118.00000000000;2140.00000000000;2098.00000000000;1932.00000000000;1923.00000000000;1955.00000000000;1998.00000000000;2018.00000000000;1995.00000000000;1959.00000000000;1951.00000000000;1923.00000000000;1947.00000000000;1959.00000000000;1944.00000000000;1935.00000000000;1921.00000000000;1947.00000000000;1947.00000000000;1945.00000000000;1945.00000000000;1954.00000000000;1926.00000000000;1930.00000000000;1938.00000000000;1945.00000000000;1932.00000000000;1917.00000000000;1951.00000000000;1918.00000000000;1948.00000000000;1928.00000000000;1915.00000000000;1924.00000000000;1914.00000000000;1900.00000000000;1917.00000000000;1911.00000000000;1917.00000000000;1895.00000000000;1924.00000000000
Gyro X : 986.000000000000;980.000000000000;1009.00000000000;1013.00000000000;992.000000000000;985.000000000000;1014.00000000000;1017.00000000000;997.000000000000;1010.00000000000;994.000000000000;1016.00000000000;988.000000000000;1017.00000000000;983.000000000000;1002.00000000000;994.000000000000;983.000000000000;995.000000000000;997.000000000000;989.000000000000;991.000000000000;998.000000000000;1005.00000000000;1013.00000000000;1009.00000000000;996.000000000000;1017.00000000000;974.000000000000;969.000000000000;963.000000000000;959.000000000000;969.000000000000;920.000000000000;865.000000000000;903.000000000000;981.000000000000;993.000000000000;1018.00000000000;722.000000000000;651.000000000000;788.000000000000;822.000000000000;522.000000000000;545.000000000000;601.000000000000;794.000000000000;868.000000000000;905.000000000000;958.000000000000;1024.00000000000;1292.00000000000;1557.00000000000;1533.00000000000;1454.00000000000;1368.00000000000;1552.00000000000;1868.00000000000;1587.00000000000;1622.00000000000;1651.00000000000;1689.00000000000;1771.00000000000;1811.00000000000;1847.00000000000;1903.00000000000;1992.00000000000;2096.00000000000;2117.00000000000;2188.00000000000;2139.00000000000;2182.00000000000;2197.00000000000;2132.00000000000;2107.00000000000;2073.00000000000;2084.00000000000;2076.00000000000;2019.00000000000;1974.00000000000;1931.00000000000;2037.00000000000;2001.00000000000;1938.00000000000;1805.00000000000;2021.00000000000;2029.00000000000;1970.00000000000;1863.00000000000;1870.00000000000;1987.00000000000;1847.00000000000;1585.00000000000;1544.00000000000;1490.00000000000;1286.00000000000;977.000000000000;709.000000000000;421.000000000000;29.0000000000000;14.0000000000000;12.0000000000000;12.0000000000000;12.0000000000000;14.0000000000000;178.000000000000;311.000000000000;356.000000000000;368.000000000000;486.000000000000;586.000000000000;882.000000000000;874.000000000000;893.000000000000;975.000000000000;923.000000000000;948.000000000000;951.000000000000;942.000000000000;1008.00000000000;990.000000000000;990.000000000000;976.000000000000;975.000000000000;984.000000000000;1005.00000000000;1027.00000000000;1032.00000000000;1046.00000000000;1041.00000000000;1019.00000000000;1011.00000000000;995.000000000000;1059.00000000000;1030.00000000000;1069.00000000000;1013.00000000000;1025.00000000000;993.000000000000;994.000000000000;1043.00000000000;1027.00000000000;1028.00000000000;984.000000000000;983.000000000000;990.000000000000;983.000000000000;988.000000000000;1017.00000000000;979.000000000000
Gyro Y : 2332.00000000000;2367.00000000000;2346.00000000000;2353.00000000000;2351.00000000000;2363.00000000000;2330.00000000000;2341.00000000000;2356.00000000000;2343.00000000000;2346.00000000000;2333.00000000000;2333.00000000000;2347.00000000000;2348.00000000000;2342.00000000000;2352.00000000000;2350.00000000000;2353.00000000000;2350.00000000000;2377.00000000000;2328.00000000000;2358.00000000000;2359.00000000000;2337.00000000000;2345.00000000000;2353.00000000000;2340.00000000000;2327.00000000000;2310.00000000000;2358.00000000000;2319.00000000000;2329.00000000000;2304.00000000000;2302.00000000000;2303.00000000000;2221.00000000000;2177.00000000000;2169.00000000000;2072.00000000000;1993.00000000000;1873.00000000000;1751.00000000000;1671.00000000000;1620.00000000000;1541.00000000000;1418.00000000000;1347.00000000000;1410.00000000000;1641.00000000000;1745.00000000000;1847.00000000000;1876.00000000000;1977.00000000000;2007.00000000000;2007.00000000000;2081.00000000000;2152.00000000000;2135.00000000000;2144.00000000000;2164.00000000000;2220.00000000000;2329.00000000000;2260.00000000000;2164.00000000000;2236.00000000000;2179.00000000000;2082.00000000000;1965.00000000000;1892.00000000000;1755.00000000000;1684.00000000000;1603.00000000000;1535.00000000000;1490.00000000000;1513.00000000000;1487.00000000000;1501.00000000000;1416.00000000000;1380.00000000000;1472.00000000000;1600.00000000000;1762.00000000000;1736.00000000000;1757.00000000000;1840.00000000000;2048.00000000000;1939.00000000000;1927.00000000000;1977.00000000000;2111.00000000000;2208.00000000000;2207.00000000000;2052.00000000000;2003.00000000000;2103.00000000000;2273.00000000000;2047.00000000000;1484.00000000000;1558.00000000000;2167.00000000000;2069.00000000000;1721.00000000000;1640.00000000000;1824.00000000000;2053.00000000000;2107.00000000000;2044.00000000000;1996.00000000000;2018.00000000000;2054.00000000000;2063.00000000000;2061.00000000000;2031.00000000000;2019.00000000000;2125.00000000000;2104.00000000000;2098.00000000000;2068.00000000000;2083.00000000000;2085.00000000000;2107.00000000000;2129.00000000000;2129.00000000000;2134.00000000000;2123.00000000000;2118.00000000000;2127.00000000000;2163.00000000000;2128.00000000000;2152.00000000000;2124.00000000000;2123.00000000000;2128.00000000000;2125.00000000000;2119.00000000000;2114.00000000000;2135.00000000000;2114.00000000000;2120.00000000000;2113.00000000000;2118.00000000000;2110.00000000000;2106.00000000000;2128.00000000000;2115.00000000000;2137.00000000000;2107.00000000000;2092.00000000000;2131.00000000000
Gyro Z : 1814.00000000000;1805.00000000000;1814.00000000000;1806.00000000000;1804.00000000000;1788.00000000000;1784.00000000000;1805.00000000000;1801.00000000000;1814.00000000000;1807.00000000000;1804.00000000000;1790.00000000000;1800.00000000000;1803.00000000000;1807.00000000000;1811.00000000000;1800.00000000000;1815.00000000000;1789.00000000000;1797.00000000000;1792.00000000000;1792.00000000000;1782.00000000000;1786.00000000000;1766.00000000000;1758.00000000000;1757.00000000000;1753.00000000000;1739.00000000000;1749.00000000000;1721.00000000000;1699.00000000000;1652.00000000000;1636.00000000000;1639.00000000000;1578.00000000000;1519.00000000000;1476.00000000000;1338.00000000000;1244.00000000000;1172.00000000000;995.000000000000;848.000000000000;803.000000000000;567.000000000000;468.000000000000;189.000000000000;27.0000000000000;23.0000000000000;26.0000000000000;38.0000000000000;23.0000000000000;24.0000000000000;71.0000000000000;177.000000000000;335.000000000000;583.000000000000;631.000000000000;807.000000000000;942.000000000000;954.000000000000;1050.00000000000;1203.00000000000;1436.00000000000;1542.00000000000;1765.00000000000;1869.00000000000;1889.00000000000;2033.00000000000;2137.00000000000;2207.00000000000;2251.00000000000;2170.00000000000;2166.00000000000;2143.00000000000;2096.00000000000;2125.00000000000;2081.00000000000;2044.00000000000;1935.00000000000;1858.00000000000;1723.00000000000;1787.00000000000;1692.00000000000;1675.00000000000;1639.00000000000;1683.00000000000;1636.00000000000;1630.00000000000;1637.00000000000;1686.00000000000;1533.00000000000;1458.00000000000;1388.00000000000;1660.00000000000;1772.00000000000;1681.00000000000;1412.00000000000;1333.00000000000;1889.00000000000;1962.00000000000;1720.00000000000;1867.00000000000;2123.00000000000;2153.00000000000;2114.00000000000;2001.00000000000;1985.00000000000;2118.00000000000;2140.00000000000;2098.00000000000;1932.00000000000;1923.00000000000;1955.00000000000;1998.00000000000;2018.00000000000;1995.00000000000;1959.00000000000;1951.00000000000;1923.00000000000;1947.00000000000;1959.00000000000;1944.00000000000;1935.00000000000;1921.00000000000;1947.00000000000;1947.00000000000;1945.00000000000;1945.00000000000;1954.00000000000;1926.00000000000;1930.00000000000;1938.00000000000;1945.00000000000;1932.00000000000;1917.00000000000;1951.00000000000;1918.00000000000;1948.00000000000;1928.00000000000;1915.00000000000;1924.00000000000;1914.00000000000;1900.00000000000;1917.00000000000;1911.00000000000;1917.00000000000;1895.00000000000;1924.00000000000
