COMMAND 3 SAMPLE 1
Accel X : 990.000000000000;998.000000000000;1023.00000000000;999.000000000000;978.000000000000;983.000000000000;1007.00000000000;1047.00000000000;1061.00000000000;1010.00000000000;964.000000000000;973.000000000000;963.000000000000;1005.00000000000;1017.00000000000;1003.00000000000;981.000000000000;990.000000000000;988.000000000000;1019.00000000000;977.000000000000;939.000000000000;957.000000000000;991.000000000000;1032.00000000000;1025.00000000000;924.000000000000;966.000000000000;961.000000000000;1018.00000000000;1077.00000000000;1082.00000000000;917.000000000000;864.000000000000;953.000000000000;1136.00000000000;1166.00000000000;951.000000000000;691.000000000000;924.000000000000;1022.00000000000;895.000000000000;595.000000000000;712.000000000000;935.000000000000;1128.00000000000;1033.00000000000;991.000000000000;1118.00000000000;1192.00000000000;1267.00000000000;1387.00000000000;1435.00000000000;1503.00000000000;1549.00000000000;1609.00000000000;1607.00000000000;1644.00000000000;1592.00000000000;1577.00000000000;1715.00000000000;1713.00000000000;1785.00000000000;1770.00000000000;1792.00000000000;1816.00000000000;1882.00000000000;1899.00000000000;1968.00000000000;2071.00000000000;2116.00000000000;2117.00000000000;2064.00000000000;2162.00000000000;2192.00000000000;2068.00000000000;2103.00000000000;2120.00000000000;1969.00000000000;1924.00000000000;2005.00000000000;1901.00000000000;1936.00000000000;1911.00000000000;1859.00000000000;1885.00000000000;1840.00000000000;1977.00000000000;1901.00000000000;1840.00000000000;1886.00000000000;2073.00000000000;1935.00000000000;1713.00000000000;1793.00000000000;1983.00000000000;2165.00000000000;2000.00000000000;1701.00000000000;1319.00000000000;1638.00000000000;1809.00000000000;1300.00000000000;798.000000000000;550.000000000000;551.000000000000;734.000000000000;448.000000000000;42.0000000000000;71.0000000000000;271.000000000000;559.000000000000;534.000000000000;540.000000000000;643.000000000000;711.000000000000;687.000000000000;738.000000000000;769.000000000000;836.000000000000;766.000000000000;734.000000000000;777.000000000000;901.000000000000;922.000000000000;959.000000000000;986.000000000000;930.000000000000;956.000000000000;954.000000000000;977.000000000000;1048.00000000000;1009.00000000000;987.000000000000;1023.00000000000;1049.00000000000;1063.00000000000;1107.00000000000;1056.00000000000;1054.00000000000;1025.00000000000;1025.00000000000;1032.00000000000;1013.00000000000;1017.00000000000;1039.00000000000;1021.00000000000;997.000000000000;996.000000000000;978.000000000000
Accel Y : 2280.00000000000;2265.00000000000;2281.00000000000;2275.00000000000;2289.00000000000;2284.00000000000;2295.00000000000;2286.00000000000;2255.00000000000;2301.00000000000;2300.00000000000;2315.00000000000;2305.00000000000;2295.00000000000;2294.00000000000;2296.00000000000;2321.00000000000;2303.00000000000;2292.00000000000;2307.00000000000;2294.00000000000;2337.00000000000;2319.00000000000;2330.00000000000;2300.00000000000;2312.00000000000;2330.00000000000;2318.00000000000;2329.00000000000;2302.00000000000;2288.00000000000;2282.00000000000;2300.00000000000;2295.00000000000;2256.00000000000;2205.00000000000;2181.00000000000;2203.00000000000;2099.00000000000;2058.00000000000;1972.00000000000;1900.00000000000;1871.00000000000;1850.00000000000;1829.00000000000;1790.00000000000;1669.00000000000;1602.00000000000;1595.00000000000;1747.00000000000;1904.00000000000;2050.00000000000;2073.00000000000;2036.00000000000;2091.00000000000;2081.00000000000;2158.00000000000;2204.00000000000;2250.00000000000;2252.00000000000;2229.00000000000;2209.00000000000;2180.00000000000;2199.00000000000;2139.00000000000;2097.00000000000;2064.00000000000;2007.00000000000;1962.00000000000;1934.00000000000;1859.00000000000;1700.00000000000;1617.00000000000;1604.00000000000;1584.00000000000;1595.00000000000;1523.00000000000;1449.00000000000;1415.00000000000;1476.00000000000;1516.00000000000;1470.00000000000;1412.00000000000;1509.00000000000;1588.00000000000;1775.00000000000;1771.00000000000;1736.00000000000;1747.00000000000;1773.00000000000;1919.00000000000;1967.00000000000;2027.00000000000;1963.00000000000;2070.00000000000;2100.00000000000;1861.00000000000;1765.00000000000;1746.00000000000;1837.00000000000;1831.00000000000;1601.00000000000;1411.00000000000;1759.00000000000;1986.00000000000;1992.00000000000;1774.00000000000;1824.00000000000;2015.00000000000;2093.00000000000;2125.00000000000;2174.00000000000;2202.00000000000;2160.00000000000;2242.00000000000;2299.00000000000;2313.00000000000;2381.00000000000;2355.00000000000;2353.00000000000;2345.00000000000;2309.00000000000;2256.00000000000;2280.00000000000;2297.00000000000;2268.00000000000;2255.00000000000;2305.00000000000;2312.00000000000;2331.00000000000;2352.00000000000;2345.00000000000;2352.00000000000;2362.00000000000;2353.00000000000;2355.00000000000;2345.00000000000;2361.00000000000;2380.00000000000;2363.00000000000;2351.00000000000;2351.00000000000;2356.00000000000;2387.00000000000;2390.00000000000;2352.00000000000;2359.00000000000;2351.00000000000;2386.00000000000;2379.00000000000
Accel Z : 1711.00000000000;1725.00000000000;1732.00000000000;1763.00000000000;1778.00000000000;1799.00000000000;1793.00000000000;1783.00000000000;1781.00000000000;1786.00000000000;1786.00000000000;1779.00000000000;1775.00000000000;1769.00000000000;1784.00000000000;1787.00000000000;1811.00000000000;1791.00000000000;1792.00000000000;1781.00000000000;1774.00000000000;1758.00000000000;1763.00000000000;1769.00000000000;1716.00000000000;1737.00000000000;1705.00000000000;1715.00000000000;1714.00000000000;1711.00000000000;1693.00000000000;1672.00000000000;1606.00000000000;1649.00000000000;1627.00000000000;1640.00000000000;1501.00000000000;1289.00000000000;1186.00000000000;1109.00000000000;952.000000000000;799.000000000000;621.000000000000;597.000000000000;480.000000000000;332.000000000000;95.0000000000000;22.0000000000000;21.0000000000000;22.0000000000000;23.0000000000000;22.0000000000000;22.0000000000000;38.0000000000000;124.000000000000;311.000000000000;359.000000000000;394.000000000000;510.000000000000;759.000000000000;920.000000000000;1013.00000000000;1067.00000000000;1111.00000000000;1238.00000000000;1371.00000000000;1540.00000000000;1625.00000000000;1734.00000000000;1826.00000000000;1972.00000000000;2049.00000000000;2123.00000000000;2199.00000000000;2255.00000000000;2264.00000000000;2281.00000000000;2330.00000000000;2217.00000000000;2167.00000000000;2182.00000000000;2098.00000000000;2094.00000000000;2085.00000000000;1964.00000000000;1880.00000000000;1787.00000000000;1822.00000000000;1899.00000000000;1804.00000000000;1660.00000000000;1569.00000000000;1457.00000000000;1436.00000000000;1350.00000000000;1155.00000000000;1054.00000000000;1017.00000000000;1125.00000000000;1172.00000000000;1090.00000000000;713.000000000000;459.000000000000;482.000000000000;539.000000000000;372.000000000000;368.000000000000;582.000000000000;951.000000000000;1108.00000000000;1141.00000000000;1369.00000000000;1545.00000000000;1716.00000000000;1917.00000000000;1968.00000000000;1891.00000000000;1941.00000000000;1995.00000000000;2009.00000000000;1950.00000000000;1858.00000000000;1895.00000000000;1935.00000000000;1927.00000000000;1915.00000000000;1934.00000000000;1920.00000000000;1944.00000000000;1934.00000000000;1939.00000000000;1985.00000000000;1918.00000000000;1897.00000000000;1896.00000000000;1908.00000000000;1927.00000000000;1898.00000000000;1891.00000000000;1863.00000000000;1858.00000000000;1865.00000000000;1892.00000000000;1851.00000000000;1878.00000000000;1848.00000000000;1845.00000000000;1855.00000000000;1856.00000000000;1858.00000000000
Gyro X : 990.000000000000;998.000000000000;1023.00000000000;999.000000000000;978.000000000000;983.000000000000;1007.00000000000;1047.00000000000;1061.00000000000;1010.00000000000;964.000000000000;973.000000000000;963.000000000000;1005.00000000000;1017.00000000000;1003.00000000000;981.000000000000;990.000000000000;988.000000000000;1019.00000000000;977.000000000000;939.000000000000;957.000000000000;991.000000000000;1032.00000000000;1025.00000000000;924.000000000000;966.000000000000;961.000000000000;1018.00000000000;1077.00000000000;1082.00000000000;917.000000000000;864.000000000000;953.000000000000;1136.00000000000;1166.00000000000;951.000000000000;691.000000000000;924.000000000000;1022.00000000000;895.000000000000;595.000000000000;712.000000000000;935.000000000000;1128.00000000000;1033.00000000000;991.000000000000;1118.00000000000;1192.00000000000;1267.00000000000;1387.00000000000;1435.00000000000;1503.00000000000;1549.00000000000;1609.00000000000;1607.00000000000;1644.00000000000;1592.00000000000;1577.00000000000;1715.00000000000;1713.00000000000;1785.00000000000;1770.00000000000;1792.00000000000;1816.00000000000;1882.00000000000;1899.00000000000;1968.00000000000;2071.00000000000;2116.00000000000;2117.00000000000;2064.00000000000;2162.00000000000;2192.00000000000;2068.00000000000;2103.00000000000;2120.00000000000;1969.00000000000;1924.00000000000;2005.00000000000;1901.00000000000;1936.00000000000;1911.00000000000;1859.00000000000;1885.00000000000;1840.00000000000;1977.00000000000;1901.00000000000;1840.00000000000;1886.00000000000;2073.00000000000;1935.00000000000;1713.00000000000;1793.00000000000;1983.00000000000;2165.00000000000;2000.00000000000;1701.00000000000;1319.00000000000;1638.00000000000;1809.00000000000;1300.00000000000;798.000000000000;550.000000000000;551.000000000000;734.000000000000;448.000000000000;42.0000000000000;71.0000000000000;271.000000000000;559.000000000000;534.000000000000;540.000000000000;643.000000000000;711.000000000000;687.000000000000;738.000000000000;769.000000000000;836.000000000000;766.000000000000;734.000000000000;777.000000000000;901.000000000000;922.000000000000;959.000000000000;986.000000000000;930.000000000000;956.000000000000;954.000000000000;977.000000000000;1048.00000000000;1009.00000000000;987.000000000000;1023.00000000000;1049.00000000000;1063.00000000000;1107.00000000000;1056.00000000000;1054.00000000000;1025.00000000000;1025.00000000000;1032.00000000000;1013.00000000000;1017.00000000000;1039.00000000000;1021.00000000000;997.000000000000;996.000000000000;978.000000000000
Gyro Y : 2280.00000000000;2265.00000000000;2281.00000000000;2275.00000000000;2289.00000000000;2284.00000000000;2295.00000000000;2286.00000000000;2255.00000000000;2301.00000000000;2300.00000000000;2315.00000000000;2305.00000000000;2295.00000000000;2294.00000000000;2296.00000000000;2321.00000000000;2303.00000000000;2292.00000000000;2307.00000000000;2294.00000000000;2337.00000000000;2319.00000000000;2330.00000000000;2300.00000000000;2312.00000000000;2330.00000000000;2318.00000000000;2329.00000000000;2302.00000000000;2288.00000000000;2282.00000000000;2300.00000000000;2295.00000000000;2256.00000000000;2205.00000000000;2181.00000000000;2203.00000000000;2099.00000000000;2058.00000000000;1972.00000000000;1900.00000000000;1871.00000000000;1850.00000000000;1829.00000000000;1790.00000000000;1669.00000000000;1602.00000000000;1595.00000000000;1747.00000000000;1904.00000000000;2050.00000000000;2073.00000000000;2036.00000000000;2091.00000000000;2081.00000000000;2158.00000000000;2204.00000000000;2250.00000000000;2252.00000000000;2229.00000000000;2209.00000000000;2180.00000000000;2199.00000000000;2139.00000000000;2097.00000000000;2064.00000000000;2007.00000000000;1962.00000000000;1934.00000000000;1859.00000000000;1700.00000000000;1617.00000000000;1604.00000000000;1584.00000000000;1595.00000000000;1523.00000000000;1449.00000000000;1415.00000000000;1476.00000000000;1516.00000000000;1470.00000000000;1412.00000000000;1509.00000000000;1588.00000000000;1775.00000000000;1771.00000000000;1736.00000000000;1747.00000000000;1773.00000000000;1919.00000000000;1967.00000000000;2027.00000000000;1963.00000000000;2070.00000000000;2100.00000000000;1861.00000000000;1765.00000000000;1746.00000000000;1837.00000000000;1831.00000000000;1601.00000000000;1411.00000000000;1759.00000000000;1986.00000000000;1992.00000000000;1774.00000000000;1824.00000000000;2015.00000000000;2093.00000000000;2125.00000000000;2174.00000000000;2202.00000000000;2160.00000000000;2242.00000000000;2299.00000000000;2313.00000000000;2381.00000000000;2355.00000000000;2353.00000000000;2345.00000000000;2309.00000000000;2256.00000000000;2280.00000000000;2297.00000000000;2268.00000000000;2255.00000000000;2305.00000000000;2312.00000000000;2331.00000000000;2352.00000000000;2345.00000000000;2352.00000000000;2362.00000000000;2353.00000000000;2355.00000000000;2345.00000000000;2361.00000000000;2380.00000000000;2363.00000000000;2351.00000000000;2351.00000000000;2356.00000000000;2387.00000000000;2390.00000000000;2352.00000000000;2359.00000000000;2351.00000000000;2386.00000000000;2379.00000000000
Gyro Z : 1711.00000000000;1725.00000000000;1732.00000000000;1763.00000000000;1778.00000000000;1799.00000000000;1793.00000000000;1783.00000000000;1781.00000000000;1786.00000000000;1786.00000000000;1779.00000000000;1775.00000000000;1769.00000000000;1784.00000000000;1787.00000000000;1811.00000000000;1791.00000000000;1792.00000000000;1781.00000000000;1774.00000000000;1758.00000000000;1763.00000000000;1769.00000000000;1716.00000000000;1737.00000000000;1705.00000000000;1715.00000000000;1714.00000000000;1711.00000000000;1693.00000000000;1672.00000000000;1606.00000000000;1649.00000000000;1627.00000000000;1640.00000000000;1501.00000000000;1289.00000000000;1186.00000000000;1109.00000000000;952.000000000000;799.000000000000;621.000000000000;597.000000000000;480.000000000000;332.000000000000;95.0000000000000;22.0000000000000;21.0000000000000;22.0000000000000;23.0000000000000;22.0000000000000;22.0000000000000;38.0000000000000;124.000000000000;311.000000000000;359.000000000000;394.000000000000;510.000000000000;759.000000000000;920.000000000000;1013.00000000000;1067.00000000000;1111.00000000000;1238.00000000000;1371.00000000000;1540.00000000000;1625.00000000000;1734.00000000000;1826.00000000000;1972.00000000000;2049.00000000000;2123.00000000000;2199.00000000000;2255.00000000000;2264.00000000000;2281.00000000000;2330.00000000000;2217.00000000000;2167.00000000000;2182.00000000000;2098.00000000000;2094.00000000000;2085.00000000000;1964.00000000000;1880.00000000000;1787.00000000000;1822.00000000000;1899.00000000000;1804.00000000000;1660.00000000000;1569.00000000000;1457.00000000000;1436.00000000000;1350.00000000000;1155.00000000000;1054.00000000000;1017.00000000000;1125.00000000000;1172.00000000000;1090.00000000000;713.000000000000;459.000000000000;482.000000000000;539.000000000000;372.000000000000;368.000000000000;582.000000000000;951.000000000000;1108.00000000000;1141.00000000000;1369.00000000000;1545.00000000000;1716.00000000000;1917.00000000000;1968.00000000000;1891.00000000000;1941.00000000000;1995.00000000000;2009.00000000000;1950.00000000000;1858.00000000000;1895.00000000000;1935.00000000000;1927.00000000000;1915.00000000000;1934.00000000000;1920.00000000000;1944.00000000000;1934.00000000000;1939.00000000000;1985.00000000000;1918.00000000000;1897.00000000000;1896.00000000000;1908.00000000000;1927.00000000000;1898.00000000000;1891.00000000000;1863.00000000000;1858.00000000000;1865.00000000000;1892.00000000000;1851.00000000000;1878.00000000000;1848.00000000000;1845.00000000000;1855.00000000000;1856.00000000000;1858.00000000000
