COMMAND 4 SAMPLE 1
Accel X : 971.000000000000;956.000000000000;995.000000000000;969.000000000000;960.000000000000;979.000000000000;976.000000000000;984.000000000000;971.000000000000;992.000000000000;988.000000000000;1001.00000000000;1020.00000000000;1018.00000000000;1026.00000000000;1035.00000000000;1051.00000000000;1035.00000000000;1005.00000000000;980.000000000000;957.000000000000;926.000000000000;946.000000000000;947.000000000000;930.000000000000;913.000000000000;913.000000000000;901.000000000000;926.000000000000;955.000000000000;954.000000000000;967.000000000000;991.000000000000;1002.00000000000;1019.00000000000;1008.00000000000;994.000000000000;1019.00000000000;1038.00000000000;1076.00000000000;1074.00000000000;1069.00000000000;1076.00000000000;1038.00000000000;1087.00000000000;1159.00000000000;1336.00000000000;1316.00000000000;1277.00000000000;1209.00000000000;1297.00000000000;1465.00000000000;1523.00000000000;1485.00000000000;1587.00000000000;1755.00000000000;1639.00000000000;1697.00000000000;1804.00000000000;1893.00000000000;1984.00000000000;1956.00000000000;1917.00000000000;1864.00000000000;1855.00000000000;1903.00000000000;1948.00000000000;2050.00000000000;2100.00000000000;2132.00000000000;2211.00000000000;2187.00000000000;1990.00000000000;1905.00000000000;2021.00000000000;2176.00000000000;2147.00000000000;2127.00000000000;2106.00000000000;2141.00000000000;2165.00000000000;2180.00000000000;2098.00000000000;2022.00000000000;1994.00000000000;2047.00000000000;2029.00000000000;2039.00000000000;2018.00000000000;1959.00000000000;1976.00000000000;2003.00000000000;1988.00000000000;1994.00000000000;1942.00000000000;1847.00000000000;1830.00000000000;1797.00000000000;1751.00000000000;1725.00000000000;1598.00000000000;1440.00000000000;1346.00000000000;1342.00000000000;1257.00000000000;1155.00000000000;1008.00000000000;961.000000000000;974.000000000000;996.000000000000;1025.00000000000;1078.00000000000;1277.00000000000;1320.00000000000;1468.00000000000;1501.00000000000;1455.00000000000;1503.00000000000;1450.00000000000;1307.00000000000;1254.00000000000;1239.00000000000;1182.00000000000;1143.00000000000;1087.00000000000;1070.00000000000;1097.00000000000;1094.00000000000;1104.00000000000;1060.00000000000;1018.00000000000;1033.00000000000;1037.00000000000;1042.00000000000;1046.00000000000;975.000000000000;993.000000000000;1004.00000000000;1001.00000000000;1000.00000000000;1030.00000000000;991.000000000000;968.000000000000;1004.00000000000;995.000000000000;1027.00000000000;1047.00000000000;999.000000000000;1001.00000000000;979.000000000000
Accel Y : 2121.00000000000;2111.00000000000;2091.00000000000;2100.00000000000;2072.00000000000;2087.00000000000;2089.00000000000;2093.00000000000;2098.00000000000;2106.00000000000;2053.00000000000;2082.00000000000;2062.00000000000;2075.00000000000;2061.00000000000;2052.00000000000;2084.00000000000;2056.00000000000;2074.00000000000;2089.00000000000;2099.00000000000;2107.00000000000;2100.00000000000;2099.00000000000;2100.00000000000;2113.00000000000;2104.00000000000;2097.00000000000;2106.00000000000;2081.00000000000;2062.00000000000;2080.00000000000;2058.00000000000;2043.00000000000;2061.00000000000;2030.00000000000;2042.00000000000;2020.00000000000;2022.00000000000;2013.00000000000;2025.00000000000;2015.00000000000;2023.00000000000;2008.00000000000;2011.00000000000;2012.00000000000;1951.00000000000;1963.00000000000;2012.00000000000;2057.00000000000;2086.00000000000;2067.00000000000;2058.00000000000;2065.00000000000;2170.00000000000;2239.00000000000;2350.00000000000;2458.00000000000;2564.00000000000;2783.00000000000;2996.00000000000;3303.00000000000;3551.00000000000;3815.00000000000;4068.00000000000;3979.00000000000;3769.00000000000;3597.00000000000;3447.00000000000;3431.00000000000;3389.00000000000;3310.00000000000;3280.00000000000;3292.00000000000;3240.00000000000;3215.00000000000;3175.00000000000;3211.00000000000;3236.00000000000;3263.00000000000;3265.00000000000;3239.00000000000;3199.00000000000;3186.00000000000;3217.00000000000;3211.00000000000;3210.00000000000;3212.00000000000;3183.00000000000;3242.00000000000;3275.00000000000;3286.00000000000;3289.00000000000;3264.00000000000;3282.00000000000;3335.00000000000;3300.00000000000;3283.00000000000;3177.00000000000;3178.00000000000;3175.00000000000;3168.00000000000;3152.00000000000;3130.00000000000;3107.00000000000;3028.00000000000;2951.00000000000;2881.00000000000;2790.00000000000;2673.00000000000;2540.00000000000;2429.00000000000;2302.00000000000;2174.00000000000;2057.00000000000;1966.00000000000;1968.00000000000;1979.00000000000;1932.00000000000;1940.00000000000;1946.00000000000;1941.00000000000;1952.00000000000;1978.00000000000;1934.00000000000;1925.00000000000;1929.00000000000;1935.00000000000;1917.00000000000;1941.00000000000;1920.00000000000;1902.00000000000;1908.00000000000;1905.00000000000;1907.00000000000;1899.00000000000;1886.00000000000;1902.00000000000;1905.00000000000;1901.00000000000;1915.00000000000;1922.00000000000;1929.00000000000;1943.00000000000;1933.00000000000;1951.00000000000;1934.00000000000;1950.00000000000;1933.00000000000;1900.00000000000
Accel Z : 1820.00000000000;1777.00000000000;1791.00000000000;1770.00000000000;1769.00000000000;1776.00000000000;1768.00000000000;1768.00000000000;1766.00000000000;1785.00000000000;1782.00000000000;1783.00000000000;1817.00000000000;1769.00000000000;1775.00000000000;1816.00000000000;1814.00000000000;1827.00000000000;1808.00000000000;1806.00000000000;1821.00000000000;1819.00000000000;1831.00000000000;1835.00000000000;1836.00000000000;1867.00000000000;1853.00000000000;1853.00000000000;1871.00000000000;1844.00000000000;1852.00000000000;1844.00000000000;1843.00000000000;1846.00000000000;1843.00000000000;1822.00000000000;1818.00000000000;1842.00000000000;1828.00000000000;1825.00000000000;1806.00000000000;1801.00000000000;1807.00000000000;1793.00000000000;1792.00000000000;1810.00000000000;1840.00000000000;1814.00000000000;1768.00000000000;1852.00000000000;1850.00000000000;1871.00000000000;1878.00000000000;1852.00000000000;1900.00000000000;2005.00000000000;1986.00000000000;2013.00000000000;2041.00000000000;2061.00000000000;2090.00000000000;2118.00000000000;2141.00000000000;2254.00000000000;2322.00000000000;2218.00000000000;2088.00000000000;2007.00000000000;1967.00000000000;1890.00000000000;1928.00000000000;1951.00000000000;1936.00000000000;1942.00000000000;1886.00000000000;1873.00000000000;1945.00000000000;1983.00000000000;1967.00000000000;1957.00000000000;1987.00000000000;1968.00000000000;1971.00000000000;1947.00000000000;1984.00000000000;1968.00000000000;1975.00000000000;1941.00000000000;1978.00000000000;2021.00000000000;2054.00000000000;2067.00000000000;2005.00000000000;2004.00000000000;2065.00000000000;2041.00000000000;2047.00000000000;2001.00000000000;1972.00000000000;1965.00000000000;1989.00000000000;1989.00000000000;1958.00000000000;1949.00000000000;1928.00000000000;1858.00000000000;1838.00000000000;1777.00000000000;1789.00000000000;1768.00000000000;1707.00000000000;1664.00000000000;1666.00000000000;1671.00000000000;1687.00000000000;1688.00000000000;1681.00000000000;1755.00000000000;1672.00000000000;1647.00000000000;1650.00000000000;1635.00000000000;1624.00000000000;1612.00000000000;1606.00000000000;1587.00000000000;1593.00000000000;1590.00000000000;1634.00000000000;1629.00000000000;1589.00000000000;1596.00000000000;1591.00000000000;1592.00000000000;1623.00000000000;1606.00000000000;1611.00000000000;1615.00000000000;1581.00000000000;1596.00000000000;1638.00000000000;1616.00000000000;1627.00000000000;1613.00000000000;1626.00000000000;1603.00000000000;1649.00000000000;1656.00000000000;1627.00000000000;1616.00000000000
Gyro X : 971.000000000000;956.000000000000;995.000000000000;969.000000000000;960.000000000000;979.000000000000;976.000000000000;984.000000000000;971.000000000000;992.000000000000;988.000000000000;1001.00000000000;1020.00000000000;1018.00000000000;1026.00000000000;1035.00000000000;1051.00000000000;1035.00000000000;1005.00000000000;980.000000000000;957.000000000000;926.000000000000;946.000000000000;947.000000000000;930.000000000000;913.000000000000;913.000000000000;901.000000000000;926.000000000000;955.000000000000;954.000000000000;967.000000000000;991.000000000000;1002.00000000000;1019.00000000000;1008.00000000000;994.000000000000;1019.00000000000;1038.00000000000;1076.00000000000;1074.00000000000;1069.00000000000;1076.00000000000;1038.00000000000;1087.00000000000;1159.00000000000;1336.00000000000;1316.00000000000;1277.00000000000;1209.00000000000;1297.00000000000;1465.00000000000;1523.00000000000;1485.00000000000;1587.00000000000;1755.00000000000;1639.00000000000;1697.00000000000;1804.00000000000;1893.00000000000;1984.00000000000;1956.00000000000;1917.00000000000;1864.00000000000;1855.00000000000;1903.00000000000;1948.00000000000;2050.00000000000;2100.00000000000;2132.00000000000;2211.00000000000;2187.00000000000;1990.00000000000;1905.00000000000;2021.00000000000;2176.00000000000;2147.00000000000;2127.00000000000;2106.00000000000;2141.00000000000;2165.00000000000;2180.00000000000;2098.00000000000;2022.00000000000;1994.00000000000;2047.00000000000;2029.00000000000;2039.00000000000;2018.00000000000;1959.00000000000;1976.00000000000;2003.00000000000;1988.00000000000;1994.00000000000;1942.00000000000;1847.00000000000;1830.00000000000;1797.00000000000;1751.00000000000;1725.00000000000;1598.00000000000;1440.00000000000;1346.00000000000;1342.00000000000;1257.00000000000;1155.00000000000;1008.00000000000;961.000000000000;974.000000000000;996.000000000000;1025.00000000000;1078.00000000000;1277.00000000000;1320.00000000000;1468.00000000000;1501.00000000000;1455.00000000000;1503.00000000000;1450.00000000000;1307.00000000000;1254.00000000000;1239.00000000000;1182.00000000000;1143.00000000000;1087.00000000000;1070.00000000000;1097.00000000000;1094.00000000000;1104.00000000000;1060.00000000000;1018.00000000000;1033.00000000000;1037.00000000000;1042.00000000000;1046.00000000000;975.000000000000;993.000000000000;1004.00000000000;1001.00000000000;1000.00000000000;1030.00000000000;991.000000000000;968.000000000000;1004.00000000000;995.000000000000;1027.00000000000;1047.00000000000;999.000000000000;1001.00000000000;979.000000000000
Gyro Y : 2121.00000000000;2111.00000000000;2091.00000000000;2100.00000000000;2072.00000000000;2087.00000000000;2089.00000000000;2093.00000000000;2098.00000000000;2106.00000000000;2053.00000000000;2082.00000000000;2062.00000000000;2075.00000000000;2061.00000000000;2052.00000000000;2084.00000000000;2056.00000000000;2074.00000000000;2089.00000000000;2099.00000000000;2107.00000000000;2100.00000000000;2099.00000000000;2100.00000000000;2113.00000000000;2104.00000000000;2097.00000000000;2106.00000000000;2081.00000000000;2062.00000000000;2080.00000000000;2058.00000000000;2043.00000000000;2061.00000000000;2030.00000000000;2042.00000000000;2020.00000000000;2022.00000000000;2013.00000000000;2025.00000000000;2015.00000000000;2023.00000000000;2008.00000000000;2011.00000000000;2012.00000000000;1951.00000000000;1963.00000000000;2012.00000000000;2057.00000000000;2086.00000000000;2067.00000000000;2058.00000000000;2065.00000000000;2170.00000000000;2239.00000000000;2350.00000000000;2458.00000000000;2564.00000000000;2783.00000000000;2996.00000000000;3303.00000000000;3551.00000000000;3815.00000000000;4068.00000000000;3979.00000000000;3769.00000000000;3597.00000000000;3447.00000000000;3431.00000000000;3389.00000000000;3310.00000000000;3280.00000000000;3292.00000000000;3240.00000000000;3215.00000000000;3175.00000000000;3211.00000000000;3236.00000000000;3263.00000000000;3265.00000000000;3239.00000000000;3199.00000000000;3186.00000000000;3217.00000000000;3211.00000000000;3210.00000000000;3212.00000000000;3183.00000000000;3242.00000000000;3275.00000000000;3286.00000000000;3289.00000000000;3264.00000000000;3282.00000000000;3335.00000000000;3300.00000000000;3283.00000000000;3177.00000000000;3178.00000000000;3175.00000000000;3168.00000000000;3152.00000000000;3130.00000000000;3107.00000000000;3028.00000000000;2951.00000000000;2881.00000000000;2790.00000000000;2673.00000000000;2540.00000000000;2429.00000000000;2302.00000000000;2174.00000000000;2057.00000000000;1966.00000000000;1968.00000000000;1979.00000000000;1932.00000000000;1940.00000000000;1946.00000000000;1941.00000000000;1952.00000000000;1978.00000000000;1934.00000000000;1925.00000000000;1929.00000000000;1935.00000000000;1917.00000000000;1941.00000000000;1920.00000000000;1902.00000000000;1908.00000000000;1905.00000000000;1907.00000000000;1899.00000000000;1886.00000000000;1902.00000000000;1905.00000000000;1901.00000000000;1915.00000000000;1922.00000000000;1929.00000000000;1943.00000000000;1933.00000000000;1951.00000000000;1934.00000000000;1950.00000000000;1933.00000000000;1900.00000000000
Gyro Z : 1820.00000000000;1777.00000000000;1791.00000000000;1770.00000000000;1769.00000000000;1776.00000000000;1768.00000000000;1768.00000000000;1766.00000000000;1785.00000000000;1782.00000000000;1783.00000000000;1817.00000000000;1769.00000000000;1775.00000000000;1816.00000000000;1814.00000000000;1827.00000000000;1808.00000000000;1806.00000000000;1821.00000000000;1819.00000000000;1831.00000000000;1835.00000000000;1836.00000000000;1867.00000000000;1853.00000000000;1853.00000000000;1871.00000000000;1844.00000000000;1852.00000000000;1844.00000000000;1843.00000000000;1846.00000000000;1843.00000000000;1822.00000000000;1818.00000000000;1842.00000000000;1828.00000000000;1825.00000000000;1806.00000000000;1801.00000000000;1807.00000000000;1793.00000000000;1792.00000000000;1810.00000000000;1840.00000000000;1814.00000000000;1768.00000000000;1852.00000000000;1850.00000000000;1871.00000000000;1878.00000000000;1852.00000000000;1900.00000000000;2005.00000000000;1986.00000000000;2013.00000000000;2041.00000000000;2061.00000000000;2090.00000000000;2118.00000000000;2141.00000000000;2254.00000000000;2322.00000000000;2218.00000000000;2088.00000000000;2007.00000000000;1967.00000000000;1890.00000000000;1928.00000000000;1951.00000000000;1936.00000000000;1942.00000000000;1886.00000000000;1873.00000000000;1945.00000000000;1983.00000000000;1967.00000000000;1957.00000000000;1987.00000000000;1968.00000000000;1971.00000000000;1947.00000000000;1984.00000000000;1968.00000000000;1975.00000000000;1941.00000000000;1978.00000000000;2021.00000000000;2054.00000000000;2067.00000000000;2005.00000000000;2004.00000000000;2065.00000000000;2041.00000000000;2047.00000000000;2001.00000000000;1972.00000000000;1965.00000000000;1989.00000000000;1989.00000000000;1958.00000000000;1949.00000000000;1928.00000000000;1858.00000000000;1838.00000000000;1777.00000000000;1789.00000000000;1768.00000000000;1707.00000000000;1664.00000000000;1666.00000000000;1671.00000000000;1687.00000000000;1688.00000000000;1681.00000000000;1755.00000000000;1672.00000000000;1647.00000000000;1650.00000000000;1635.00000000000;1624.00000000000;1612.00000000000;1606.00000000000;1587.00000000000;1593.00000000000;1590.00000000000;1634.00000000000;1629.00000000000;1589.00000000000;1596.00000000000;1591.00000000000;1592.00000000000;1623.00000000000;1606.00000000000;1611.00000000000;1615.00000000000;1581.00000000000;1596.00000000000;1638.00000000000;1616.00000000000;1627.00000000000;1613.00000000000;1626.00000000000;1603.00000000000;1649.00000000000;1656.00000000000;1627.00000000000;1616.00000000000
