COMMAND 5 SAMPLE 1
Accel X : 962.000000000000;1005.00000000000;1036.00000000000;1036.00000000000;1012.00000000000;1046.00000000000;994.000000000000;1044.00000000000;1046.00000000000;1014.00000000000;1029.00000000000;1058.00000000000;1031.00000000000;1047.00000000000;1022.00000000000;1047.00000000000;1061.00000000000;1026.00000000000;1051.00000000000;1070.00000000000;1025.00000000000;1019.00000000000;1063.00000000000;1039.00000000000;1020.00000000000;999.000000000000;1030.00000000000;1019.00000000000;1025.00000000000;1029.00000000000;1018.00000000000;1055.00000000000;1028.00000000000;1040.00000000000;1033.00000000000;1037.00000000000;1059.00000000000;1027.00000000000;1014.00000000000;1023.00000000000;1012.00000000000;1023.00000000000;1037.00000000000;1060.00000000000;1043.00000000000;1019.00000000000;1003.00000000000;1010.00000000000;1020.00000000000;1030.00000000000;1052.00000000000;1020.00000000000;1018.00000000000;1003.00000000000;1032.00000000000;1033.00000000000;1045.00000000000;1053.00000000000;1013.00000000000;1036.00000000000;1014.00000000000;1035.00000000000;1032.00000000000;1008.00000000000;1028.00000000000;1011.00000000000;1039.00000000000;1027.00000000000;1031.00000000000;1012.00000000000;1032.00000000000;1026.00000000000;1020.00000000000;1019.00000000000;1041.00000000000;1040.00000000000;1048.00000000000;1029.00000000000;1064.00000000000;1011.00000000000;1063.00000000000;1050.00000000000;1049.00000000000;1022.00000000000;1032.00000000000;1041.00000000000;1019.00000000000;1033.00000000000;1041.00000000000;1056.00000000000;1029.00000000000;1013.00000000000;1027.00000000000;1015.00000000000;1022.00000000000;1025.00000000000;1039.00000000000;1051.00000000000;1042.00000000000;1034.00000000000;1002.00000000000;1011.00000000000;1009.00000000000;1029.00000000000;1033.00000000000;1034.00000000000;1030.00000000000;1041.00000000000;1048.00000000000;1025.00000000000;1030.00000000000;1021.00000000000;1029.00000000000;1029.00000000000;1036.00000000000;1039.00000000000;1021.00000000000;1018.00000000000;1020.00000000000;1031.00000000000;1030.00000000000;1022.00000000000;1029.00000000000;1030.00000000000;1054.00000000000;1060.00000000000;1044.00000000000;1036.00000000000;1012.00000000000;1042.00000000000;1014.00000000000;1036.00000000000;1041.00000000000;1055.00000000000;1041.00000000000;1051.00000000000;1017.00000000000;1034.00000000000;1021.00000000000;1050.00000000000;1041.00000000000;1021.00000000000;1027.00000000000;992.000000000000;1027.00000000000;1036.00000000000;1031.00000000000;1045.00000000000;1022.00000000000;1038.00000000000
Accel Y : 2011.00000000000;2004.00000000000;1982.00000000000;1987.00000000000;1992.00000000000;2004.00000000000;1968.00000000000;1996.00000000000;1985.00000000000;1976.00000000000;1976.00000000000;1971.00000000000;1951.00000000000;1960.00000000000;1966.00000000000;1974.00000000000;1967.00000000000;1950.00000000000;1943.00000000000;1959.00000000000;1960.00000000000;1958.00000000000;1944.00000000000;1948.00000000000;1957.00000000000;1972.00000000000;1964.00000000000;1966.00000000000;1944.00000000000;1939.00000000000;1966.00000000000;1978.00000000000;1966.00000000000;1969.00000000000;1952.00000000000;1963.00000000000;1968.00000000000;1975.00000000000;1989.00000000000;1990.00000000000;1997.00000000000;2017.00000000000;1991.00000000000;2005.00000000000;1997.00000000000;1996.00000000000;1999.00000000000;1983.00000000000;1961.00000000000;1968.00000000000;1995.00000000000;2009.00000000000;1997.00000000000;1994.00000000000;2004.00000000000;2001.00000000000;1987.00000000000;1956.00000000000;1972.00000000000;1989.00000000000;1985.00000000000;1987.00000000000;1985.00000000000;1987.00000000000;1978.00000000000;1971.00000000000;1993.00000000000;1976.00000000000;1985.00000000000;1991.00000000000;1999.00000000000;2003.00000000000;2020.00000000000;2009.00000000000;2009.00000000000;1985.00000000000;1993.00000000000;2008.00000000000;2001.00000000000;1992.00000000000;2008.00000000000;1990.00000000000;2001.00000000000;1989.00000000000;1987.00000000000;1987.00000000000;1997.00000000000;1993.00000000000;1991.00000000000;1993.00000000000;1984.00000000000;1990.00000000000;2029.00000000000;2006.00000000000;2018.00000000000;1997.00000000000;1985.00000000000;1999.00000000000;2022.00000000000;1976.00000000000;1993.00000000000;1993.00000000000;1996.00000000000;1985.00000000000;2011.00000000000;1983.00000000000;1984.00000000000;1977.00000000000;1994.00000000000;1998.00000000000;2039.00000000000;1998.00000000000;1988.00000000000;2013.00000000000;2002.00000000000;1990.00000000000;2031.00000000000;1983.00000000000;1987.00000000000;1995.00000000000;1984.00000000000;1996.00000000000;1995.00000000000;1990.00000000000;2005.00000000000;1982.00000000000;1990.00000000000;1994.00000000000;1996.00000000000;1992.00000000000;1990.00000000000;1986.00000000000;1987.00000000000;1999.00000000000;1983.00000000000;1984.00000000000;2007.00000000000;2001.00000000000;2004.00000000000;1993.00000000000;1993.00000000000;2010.00000000000;1997.00000000000;2002.00000000000;2009.00000000000;1986.00000000000;1995.00000000000;1983.00000000000;1990.00000000000;1986.00000000000
Accel Z : 1582.00000000000;1575.00000000000;1559.00000000000;1531.00000000000;1522.00000000000;1496.00000000000;1469.00000000000;1491.00000000000;1479.00000000000;1468.00000000000;1470.00000000000;1449.00000000000;1465.00000000000;1447.00000000000;1455.00000000000;1429.00000000000;1459.00000000000;1449.00000000000;1410.00000000000;1414.00000000000;1446.00000000000;1425.00000000000;1426.00000000000;1447.00000000000;1414.00000000000;1458.00000000000;1433.00000000000;1433.00000000000;1425.00000000000;1434.00000000000;1445.00000000000;1406.00000000000;1423.00000000000;1420.00000000000;1403.00000000000;1434.00000000000;1432.00000000000;1446.00000000000;1431.00000000000;1428.00000000000;1430.00000000000;1416.00000000000;1450.00000000000;1425.00000000000;1431.00000000000;1435.00000000000;1426.00000000000;1439.00000000000;1417.00000000000;1409.00000000000;1416.00000000000;1396.00000000000;1389.00000000000;1420.00000000000;1402.00000000000;1442.00000000000;1422.00000000000;1422.00000000000;1415.00000000000;1438.00000000000;1402.00000000000;1413.00000000000;1416.00000000000;1422.00000000000;1428.00000000000;1418.00000000000;1416.00000000000;1428.00000000000;1451.00000000000;1427.00000000000;1431.00000000000;1430.00000000000;1424.00000000000;1418.00000000000;1409.00000000000;1407.00000000000;1424.00000000000;1441.00000000000;1414.00000000000;1426.00000000000;1438.00000000000;1400.00000000000;1430.00000000000;1440.00000000000;1438.00000000000;1421.00000000000;1452.00000000000;1409.00000000000;1405.00000000000;1428.00000000000;1409.00000000000;1424.00000000000;1422.00000000000;1411.00000000000;1421.00000000000;1433.00000000000;1427.00000000000;1415.00000000000;1423.00000000000;1437.00000000000;1437.00000000000;1414.00000000000;1420.00000000000;1419.00000000000;1432.00000000000;1432.00000000000;1425.00000000000;1423.00000000000;1425.00000000000;1431.00000000000;1398.00000000000;1428.00000000000;1425.00000000000;1429.00000000000;1439.00000000000;1416.00000000000;1404.00000000000;1403.00000000000;1416.00000000000;1409.00000000000;1418.00000000000;1418.00000000000;1405.00000000000;1411.00000000000;1407.00000000000;1419.00000000000;1429.00000000000;1410.00000000000;1417.00000000000;1417.00000000000;1407.00000000000;1412.00000000000;1421.00000000000;1425.00000000000;1402.00000000000;1413.00000000000;1437.00000000000;1455.00000000000;1411.00000000000;1426.00000000000;1396.00000000000;1431.00000000000;1421.00000000000;1415.00000000000;1405.00000000000;1423.00000000000;1420.00000000000;1420.00000000000;1418.00000000000;1390.00000000000
Gyro X : 962.000000000000;1005.00000000000;1036.00000000000;1036.00000000000;1012.00000000000;1046.00000000000;994.000000000000;1044.00000000000;1046.00000000000;1014.00000000000;1029.00000000000;1058.00000000000;1031.00000000000;1047.00000000000;1022.00000000000;1047.00000000000;1061.00000000000;1026.00000000000;1051.00000000000;1070.00000000000;1025.00000000000;1019.00000000000;1063.00000000000;1039.00000000000;1020.00000000000;999.000000000000;1030.00000000000;1019.00000000000;1025.00000000000;1029.00000000000;1018.00000000000;1055.00000000000;1028.00000000000;1040.00000000000;1033.00000000000;1037.00000000000;1059.00000000000;1027.00000000000;1014.00000000000;1023.00000000000;1012.00000000000;1023.00000000000;1037.00000000000;1060.00000000000;1043.00000000000;1019.00000000000;1003.00000000000;1010.00000000000;1020.00000000000;1030.00000000000;1052.00000000000;1020.00000000000;1018.00000000000;1003.00000000000;1032.00000000000;1033.00000000000;1045.00000000000;1053.00000000000;1013.00000000000;1036.00000000000;1014.00000000000;1035.00000000000;1032.00000000000;1008.00000000000;1028.00000000000;1011.00000000000;1039.00000000000;1027.00000000000;1031.00000000000;1012.00000000000;1032.00000000000;1026.00000000000;1020.00000000000;1019.00000000000;1041.00000000000;1040.00000000000;1048.00000000000;1029.00000000000;1064.00000000000;1011.00000000000;1063.00000000000;1050.00000000000;1049.00000000000;1022.00000000000;1032.00000000000;1041.00000000000;1019.00000000000;1033.00000000000;1041.00000000000;1056.00000000000;1029.00000000000;1013.00000000000;1027.00000000000;1015.00000000000;1022.00000000000;1025.00000000000;1039.00000000000;1051.00000000000;1042.00000000000;1034.00000000000;1002.00000000000;1011.00000000000;1009.00000000000;1029.00000000000;1033.00000000000;1034.00000000000;1030.00000000000;1041.00000000000;1048.00000000000;1025.00000000000;1030.00000000000;1021.00000000000;1029.00000000000;1029.00000000000;1036.00000000000;1039.00000000000;1021.00000000000;1018.00000000000;1020.00000000000;1031.00000000000;1030.00000000000;1022.00000000000;1029.00000000000;1030.00000000000;1054.00000000000;1060.00000000000;1044.00000000000;1036.00000000000;1012.00000000000;1042.00000000000;1014.00000000000;1036.00000000000;1041.00000000000;1055.00000000000;1041.00000000000;1051.00000000000;1017.00000000000;1034.00000000000;1021.00000000000;1050.00000000000;1041.00000000000;1021.00000000000;1027.00000000000;992.000000000000;1027.00000000000;1036.00000000000;1031.00000000000;1045.00000000000;1022.00000000000;1038.00000000000
Gyro Y : 2011.00000000000;2004.00000000000;1982.00000000000;1987.00000000000;1992.00000000000;2004.00000000000;1968.00000000000;1996.00000000000;1985.00000000000;1976.00000000000;1976.00000000000;1971.00000000000;1951.00000000000;1960.00000000000;1966.00000000000;1974.00000000000;1967.00000000000;1950.00000000000;1943.00000000000;1959.00000000000;1960.00000000000;1958.00000000000;1944.00000000000;1948.00000000000;1957.00000000000;1972.00000000000;1964.00000000000;1966.00000000000;1944.00000000000;1939.00000000000;1966.00000000000;1978.00000000000;1966.00000000000;1969.00000000000;1952.00000000000;1963.00000000000;1968.00000000000;1975.00000000000;1989.00000000000;1990.00000000000;1997.00000000000;2017.00000000000;1991.00000000000;2005.00000000000;1997.00000000000;1996.00000000000;1999.00000000000;1983.00000000000;1961.00000000000;1968.00000000000;1995.00000000000;2009.00000000000;1997.00000000000;1994.00000000000;2004.00000000000;2001.00000000000;1987.00000000000;1956.00000000000;1972.00000000000;1989.00000000000;1985.00000000000;1987.00000000000;1985.00000000000;1987.00000000000;1978.00000000000;1971.00000000000;1993.00000000000;1976.00000000000;1985.00000000000;1991.00000000000;1999.00000000000;2003.00000000000;2020.00000000000;2009.00000000000;2009.00000000000;1985.00000000000;1993.00000000000;2008.00000000000;2001.00000000000;1992.00000000000;2008.00000000000;1990.00000000000;2001.00000000000;1989.00000000000;1987.00000000000;1987.00000000000;1997.00000000000;1993.00000000000;1991.00000000000;1993.00000000000;1984.00000000000;1990.00000000000;2029.00000000000;2006.00000000000;2018.00000000000;1997.00000000000;1985.00000000000;1999.00000000000;2022.00000000000;1976.00000000000;1993.00000000000;1993.00000000000;1996.00000000000;1985.00000000000;2011.00000000000;1983.00000000000;1984.00000000000;1977.00000000000;1994.00000000000;1998.00000000000;2039.00000000000;1998.00000000000;1988.00000000000;2013.00000000000;2002.00000000000;1990.00000000000;2031.00000000000;1983.00000000000;1987.00000000000;1995.00000000000;1984.00000000000;1996.00000000000;1995.00000000000;1990.00000000000;2005.00000000000;1982.00000000000;1990.00000000000;1994.00000000000;1996.00000000000;1992.00000000000;1990.00000000000;1986.00000000000;1987.00000000000;1999.00000000000;1983.00000000000;1984.00000000000;2007.00000000000;2001.00000000000;2004.00000000000;1993.00000000000;1993.00000000000;2010.00000000000;1997.00000000000;2002.00000000000;2009.00000000000;1986.00000000000;1995.00000000000;1983.00000000000;1990.00000000000;1986.00000000000
Gyro Z : 1582.00000000000;1575.00000000000;1559.00000000000;1531.00000000000;1522.00000000000;1496.00000000000;1469.00000000000;1491.00000000000;1479.00000000000;1468.00000000000;1470.00000000000;1449.00000000000;1465.00000000000;1447.00000000000;1455.00000000000;1429.00000000000;1459.00000000000;1449.00000000000;1410.00000000000;1414.00000000000;1446.00000000000;1425.00000000000;1426.00000000000;1447.00000000000;1414.00000000000;1458.00000000000;1433.00000000000;1433.00000000000;1425.00000000000;1434.00000000000;1445.00000000000;1406.00000000000;1423.00000000000;1420.00000000000;1403.00000000000;1434.00000000000;1432.00000000000;1446.00000000000;1431.00000000000;1428.00000000000;1430.00000000000;1416.00000000000;1450.00000000000;1425.00000000000;1431.00000000000;1435.00000000000;1426.00000000000;1439.00000000000;1417.00000000000;1409.00000000000;1416.00000000000;1396.00000000000;1389.00000000000;1420.00000000000;1402.00000000000;1442.00000000000;1422.00000000000;1422.00000000000;1415.00000000000;1438.00000000000;1402.00000000000;1413.00000000000;1416.00000000000;1422.00000000000;1428.00000000000;1418.00000000000;1416.00000000000;1428.00000000000;1451.00000000000;1427.00000000000;1431.00000000000;1430.00000000000;1424.00000000000;1418.00000000000;1409.00000000000;1407.00000000000;1424.00000000000;1441.00000000000;1414.00000000000;1426.00000000000;1438.00000000000;1400.00000000000;1430.00000000000;1440.00000000000;1438.00000000000;1421.00000000000;1452.00000000000;1409.00000000000;1405.00000000000;1428.00000000000;1409.00000000000;1424.00000000000;1422.00000000000;1411.00000000000;1421.00000000000;1433.00000000000;1427.00000000000;1415.00000000000;1423.00000000000;1437.00000000000;1437.00000000000;1414.00000000000;1420.00000000000;1419.00000000000;1432.00000000000;1432.00000000000;1425.00000000000;1423.00000000000;1425.00000000000;1431.00000000000;1398.00000000000;1428.00000000000;1425.00000000000;1429.00000000000;1439.00000000000;1416.00000000000;1404.00000000000;1403.00000000000;1416.00000000000;1409.00000000000;1418.00000000000;1418.00000000000;1405.00000000000;1411.00000000000;1407.00000000000;1419.00000000000;1429.00000000000;1410.00000000000;1417.00000000000;1417.00000000000;1407.00000000000;1412.00000000000;1421.00000000000;1425.00000000000;1402.00000000000;1413.00000000000;1437.00000000000;1455.00000000000;1411.00000000000;1426.00000000000;1396.00000000000;1431.00000000000;1421.00000000000;1415.00000000000;1405.00000000000;1423.00000000000;1420.00000000000;1420.00000000000;1418.00000000000;1390.00000000000
