COMMAND 1 SAMPLE 1
Accel X : 1004.00000000000;958.000000000000;972.000000000000;973.000000000000;985.000000000000;992.000000000000;986.000000000000;1003.00000000000;998.000000000000;1004.00000000000;976.000000000000;990.000000000000;988.000000000000;954.000000000000;994.000000000000;993.000000000000;1005.00000000000;971.000000000000;953.000000000000;982.000000000000;962.000000000000;973.000000000000;966.000000000000;985.000000000000;974.000000000000;989.000000000000;954.000000000000;989.000000000000;963.000000000000;1000.00000000000;986.000000000000;983.000000000000;992.000000000000;982.000000000000;1010.00000000000;992.000000000000;992.000000000000;985.000000000000;949.000000000000;923.000000000000;944.000000000000;969.000000000000;923.000000000000;994.000000000000;909.000000000000;900.000000000000;789.000000000000;808.000000000000;810.000000000000;911.000000000000;869.000000000000;820.000000000000;760.000000000000;728.000000000000;851.000000000000;898.000000000000;948.000000000000;970.000000000000;1120.00000000000;1191.00000000000;1236.00000000000;1275.00000000000;1384.00000000000;1448.00000000000;1505.00000000000;1449.00000000000;1631.00000000000;1869.00000000000;1967.00000000000;2195.00000000000;2212.00000000000;2183.00000000000;2090.00000000000;1965.00000000000;1925.00000000000;1798.00000000000;1842.00000000000;1766.00000000000;1748.00000000000;1789.00000000000;1879.00000000000;1930.00000000000;1838.00000000000;1675.00000000000;1387.00000000000;1236.00000000000;1340.00000000000;1530.00000000000;1490.00000000000;1074.00000000000;614.000000000000;642.000000000000;1216.00000000000;1474.00000000000;893.000000000000;12.0000000000000;13.0000000000000;451.000000000000;788.000000000000;857.000000000000;843.000000000000;842.000000000000;851.000000000000;868.000000000000;916.000000000000;1004.00000000000;1027.00000000000;1025.00000000000;1014.00000000000;975.000000000000;984.000000000000;1008.00000000000;1000.00000000000;1018.00000000000;1043.00000000000;1048.00000000000;1043.00000000000;1006.00000000000;1019.00000000000;998.000000000000;991.000000000000;1034.00000000000;1032.00000000000;1037.00000000000;1021.00000000000;1005.00000000000;1014.00000000000;1002.00000000000;1005.00000000000;999.000000000000;971.000000000000;1000.00000000000;979.000000000000;966.000000000000;986.000000000000;1005.00000000000;973.000000000000;976.000000000000;981.000000000000;985.000000000000;969.000000000000;990.000000000000;982.000000000000;1012.00000000000;999.000000000000;995.000000000000;979.000000000000;999.000000000000;999.000000000000;975.000000000000
Accel Y : 2215.00000000000;2219.00000000000;2222.00000000000;2229.00000000000;2217.00000000000;2212.00000000000;2212.00000000000;2221.00000000000;2213.00000000000;2220.00000000000;2206.00000000000;2223.00000000000;2223.00000000000;2224.00000000000;2212.00000000000;2229.00000000000;2219.00000000000;2217.00000000000;2236.00000000000;2225.00000000000;2211.00000000000;2223.00000000000;2208.00000000000;2218.00000000000;2216.00000000000;2216.00000000000;2238.00000000000;2215.00000000000;2221.00000000000;2209.00000000000;2211.00000000000;2214.00000000000;2211.00000000000;2188.00000000000;2213.00000000000;2214.00000000000;2206.00000000000;2198.00000000000;2201.00000000000;2205.00000000000;2191.00000000000;2195.00000000000;2172.00000000000;2163.00000000000;2180.00000000000;2120.00000000000;2151.00000000000;2099.00000000000;2095.00000000000;2007.00000000000;2013.00000000000;2012.00000000000;1963.00000000000;1980.00000000000;1940.00000000000;1907.00000000000;1855.00000000000;1838.00000000000;1801.00000000000;1740.00000000000;1715.00000000000;1721.00000000000;1724.00000000000;1762.00000000000;1781.00000000000;1775.00000000000;1835.00000000000;1783.00000000000;1568.00000000000;1629.00000000000;1733.00000000000;1666.00000000000;1636.00000000000;1658.00000000000;1611.00000000000;1525.00000000000;1605.00000000000;1641.00000000000;1670.00000000000;1604.00000000000;1560.00000000000;1567.00000000000;1613.00000000000;1792.00000000000;1723.00000000000;1619.00000000000;1459.00000000000;1488.00000000000;1717.00000000000;1919.00000000000;1954.00000000000;1986.00000000000;2027.00000000000;2175.00000000000;2708.00000000000;2773.00000000000;2604.00000000000;2393.00000000000;2319.00000000000;2316.00000000000;2343.00000000000;2332.00000000000;2332.00000000000;2349.00000000000;2338.00000000000;2322.00000000000;2286.00000000000;2313.00000000000;2325.00000000000;2328.00000000000;2346.00000000000;2327.00000000000;2319.00000000000;2315.00000000000;2310.00000000000;2283.00000000000;2287.00000000000;2300.00000000000;2280.00000000000;2290.00000000000;2269.00000000000;2260.00000000000;2281.00000000000;2269.00000000000;2267.00000000000;2261.00000000000;2256.00000000000;2297.00000000000;2253.00000000000;2284.00000000000;2267.00000000000;2273.00000000000;2274.00000000000;2273.00000000000;2271.00000000000;2261.00000000000;2254.00000000000;2270.00000000000;2251.00000000000;2262.00000000000;2240.00000000000;2243.00000000000;2259.00000000000;2259.00000000000;2251.00000000000;2251.00000000000;2252.00000000000;2268.00000000000;2240.00000000000;2262.00000000000
Accel Z : 1817.00000000000;1831.00000000000;1851.00000000000;1819.00000000000;1830.00000000000;1831.00000000000;1843.00000000000;1845.00000000000;1819.00000000000;1823.00000000000;1823.00000000000;1832.00000000000;1810.00000000000;1839.00000000000;1832.00000000000;1819.00000000000;1835.00000000000;1829.00000000000;1843.00000000000;1820.00000000000;1812.00000000000;1829.00000000000;1823.00000000000;1849.00000000000;1838.00000000000;1812.00000000000;1830.00000000000;1795.00000000000;1807.00000000000;1809.00000000000;1812.00000000000;1810.00000000000;1817.00000000000;1818.00000000000;1820.00000000000;1815.00000000000;1807.00000000000;1820.00000000000;1763.00000000000;1755.00000000000;1748.00000000000;1745.00000000000;1751.00000000000;1696.00000000000;1660.00000000000;1585.00000000000;1525.00000000000;1501.00000000000;1463.00000000000;1440.00000000000;1270.00000000000;1149.00000000000;1111.00000000000;1060.00000000000;1007.00000000000;965.000000000000;897.000000000000;786.000000000000;800.000000000000;721.000000000000;703.000000000000;823.000000000000;900.000000000000;1069.00000000000;1360.00000000000;1784.00000000000;2201.00000000000;2157.00000000000;2101.00000000000;2329.00000000000;2397.00000000000;2263.00000000000;2112.00000000000;1893.00000000000;1687.00000000000;1614.00000000000;1864.00000000000;2013.00000000000;2005.00000000000;1970.00000000000;1798.00000000000;1663.00000000000;1632.00000000000;1604.00000000000;1431.00000000000;1104.00000000000;979.000000000000;958.000000000000;872.000000000000;976.000000000000;1122.00000000000;1166.00000000000;1546.00000000000;1835.00000000000;1814.00000000000;1894.00000000000;2078.00000000000;2048.00000000000;2031.00000000000;2042.00000000000;2063.00000000000;2055.00000000000;2040.00000000000;2031.00000000000;1979.00000000000;1995.00000000000;1961.00000000000;1918.00000000000;1925.00000000000;1879.00000000000;1878.00000000000;1871.00000000000;1862.00000000000;1858.00000000000;1861.00000000000;1872.00000000000;1840.00000000000;1835.00000000000;1855.00000000000;1865.00000000000;1881.00000000000;1897.00000000000;1851.00000000000;1866.00000000000;1887.00000000000;1875.00000000000;1877.00000000000;1893.00000000000;1889.00000000000;1862.00000000000;1865.00000000000;1870.00000000000;1863.00000000000;1881.00000000000;1877.00000000000;1866.00000000000;1879.00000000000;1876.00000000000;1888.00000000000;1848.00000000000;1874.00000000000;1832.00000000000;1851.00000000000;1851.00000000000;1830.00000000000;1845.00000000000;1843.00000000000;1839.00000000000;1839.00000000000;1841.00000000000
Gyro X : 1004.00000000000;958.000000000000;972.000000000000;973.000000000000;985.000000000000;992.000000000000;986.000000000000;1003.00000000000;998.000000000000;1004.00000000000;976.000000000000;990.000000000000;988.000000000000;954.000000000000;994.000000000000;993.000000000000;1005.00000000000;971.000000000000;953.000000000000;982.000000000000;962.000000000000;973.000000000000;966.000000000000;985.000000000000;974.000000000000;989.000000000000;954.000000000000;989.000000000000;963.000000000000;1000.00000000000;986.000000000000;983.000000000000;992.000000000000;982.000000000000;1010.00000000000;992.000000000000;992.000000000000;985.000000000000;949.000000000000;923.000000000000;944.000000000000;969.000000000000;923.000000000000;994.000000000000;909.000000000000;900.000000000000;789.000000000000;808.000000000000;810.000000000000;911.000000000000;869.000000000000;820.000000000000;760.000000000000;728.000000000000;851.000000000000;898.000000000000;948.000000000000;970.000000000000;1120.00000000000;1191.00000000000;1236.00000000000;1275.00000000000;1384.00000000000;1448.00000000000;1505.00000000000;1449.00000000000;1631.00000000000;1869.00000000000;1967.00000000000;2195.00000000000;2212.00000000000;2183.00000000000;2090.00000000000;1965.00000000000;1925.00000000000;1798.00000000000;1842.00000000000;1766.00000000000;1748.00000000000;1789.00000000000;1879.00000000000;1930.00000000000;1838.00000000000;1675.00000000000;1387.00000000000;1236.00000000000;1340.00000000000;1530.00000000000;1490.00000000000;1074.00000000000;614.000000000000;642.000000000000;1216.00000000000;1474.00000000000;893.000000000000;12.0000000000000;13.0000000000000;451.000000000000;788.000000000000;857.000000000000;843.000000000000;842.000000000000;851.000000000000;868.000000000000;916.000000000000;1004.00000000000;1027.00000000000;1025.00000000000;1014.00000000000;975.000000000000;984.000000000000;1008.00000000000;1000.00000000000;1018.00000000000;1043.00000000000;1048.00000000000;1043.00000000000;1006.00000000000;1019.00000000000;998.000000000000;991.000000000000;1034.00000000000;1032.00000000000;1037.00000000000;1021.00000000000;1005.00000000000;1014.00000000000;1002.00000000000;1005.00000000000;999.000000000000;971.000000000000;1000.00000000000;979.000000000000;966.000000000000;986.000000000000;1005.00000000000;973.000000000000;976.000000000000;981.000000000000;985.000000000000;969.000000000000;990.000000000000;982.000000000000;1012.00000000000;999.000000000000;995.000000000000;979.000000000000;999.000000000000;999.000000000000;975.000000000000
Gyro Y : 2215.00000000000;2219.00000000000;2222.00000000000;2229.00000000000;2217.00000000000;2212.00000000000;2212.00000000000;2221.00000000000;2213.00000000000;2220.00000000000;2206.00000000000;2223.00000000000;2223.00000000000;2224.00000000000;2212.00000000000;2229.00000000000;2219.00000000000;2217.00000000000;2236.00000000000;2225.00000000000;2211.00000000000;2223.00000000000;2208.00000000000;2218.00000000000;2216.00000000000;2216.00000000000;2238.00000000000;2215.00000000000;2221.00000000000;2209.00000000000;2211.00000000000;2214.00000000000;2211.00000000000;2188.00000000000;2213.00000000000;2214.00000000000;2206.00000000000;2198.00000000000;2201.00000000000;2205.00000000000;2191.00000000000;2195.00000000000;2172.00000000000;2163.00000000000;2180.00000000000;2120.00000000000;2151.00000000000;2099.00000000000;2095.00000000000;2007.00000000000;2013.00000000000;2012.00000000000;1963.00000000000;1980.00000000000;1940.00000000000;1907.00000000000;1855.00000000000;1838.00000000000;1801.00000000000;1740.00000000000;1715.00000000000;1721.00000000000;1724.00000000000;1762.00000000000;1781.00000000000;1775.00000000000;1835.00000000000;1783.00000000000;1568.00000000000;1629.00000000000;1733.00000000000;1666.00000000000;1636.00000000000;1658.00000000000;1611.00000000000;1525.00000000000;1605.00000000000;1641.00000000000;1670.00000000000;1604.00000000000;1560.00000000000;1567.00000000000;1613.00000000000;1792.00000000000;1723.00000000000;1619.00000000000;1459.00000000000;1488.00000000000;1717.00000000000;1919.00000000000;1954.00000000000;1986.00000000000;2027.00000000000;2175.00000000000;2708.00000000000;2773.00000000000;2604.00000000000;2393.00000000000;2319.00000000000;2316.00000000000;2343.00000000000;2332.00000000000;2332.00000000000;2349.00000000000;2338.00000000000;2322.00000000000;2286.00000000000;2313.00000000000;2325.00000000000;2328.00000000000;2346.00000000000;2327.00000000000;2319.00000000000;2315.00000000000;2310.00000000000;2283.00000000000;2287.00000000000;2300.00000000000;2280.00000000000;2290.00000000000;2269.00000000000;2260.00000000000;2281.00000000000;2269.00000000000;2267.00000000000;2261.00000000000;2256.00000000000;2297.00000000000;2253.00000000000;2284.00000000000;2267.00000000000;2273.00000000000;2274.00000000000;2273.00000000000;2271.00000000000;2261.00000000000;2254.00000000000;2270.00000000000;2251.00000000000;2262.00000000000;2240.00000000000;2243.00000000000;2259.00000000000;2259.00000000000;2251.00000000000;2251.00000000000;2252.00000000000;2268.00000000000;2240.00000000000;2262.00000000000
Gyro Z : 1817.00000000000;1831.00000000000;1851.00000000000;1819.00000000000;1830.00000000000;1831.00000000000;1843.00000000000;1845.00000000000;1819.00000000000;1823.00000000000;1823.00000000000;1832.00000000000;1810.00000000000;1839.00000000000;1832.00000000000;1819.00000000000;1835.00000000000;1829.00000000000;1843.00000000000;1820.00000000000;1812.00000000000;1829.00000000000;1823.00000000000;1849.00000000000;1838.00000000000;1812.00000000000;1830.00000000000;1795.00000000000;1807.00000000000;1809.00000000000;1812.00000000000;1810.00000000000;1817.00000000000;1818.00000000000;1820.00000000000;1815.00000000000;1807.00000000000;1820.00000000000;1763.00000000000;1755.00000000000;1748.00000000000;1745.00000000000;1751.00000000000;1696.00000000000;1660.00000000000;1585.00000000000;1525.00000000000;1501.00000000000;1463.00000000000;1440.00000000000;1270.00000000000;1149.00000000000;1111.00000000000;1060.00000000000;1007.00000000000;965.000000000000;897.000000000000;786.000000000000;800.000000000000;721.000000000000;703.000000000000;823.000000000000;900.000000000000;1069.00000000000;1360.00000000000;1784.00000000000;2201.00000000000;2157.00000000000;2101.00000000000;2329.00000000000;2397.00000000000;2263.00000000000;2112.00000000000;1893.00000000000;1687.00000000000;1614.00000000000;1864.00000000000;2013.00000000000;2005.00000000000;1970.00000000000;1798.00000000000;1663.00000000000;1632.00000000000;1604.00000000000;1431.00000000000;1104.00000000000;979.000000000000;958.000000000000;872.000000000000;976.000000000000;1122.00000000000;1166.00000000000;1546.00000000000;1835.00000000000;1814.00000000000;1894.00000000000;2078.00000000000;2048.00000000000;2031.00000000000;2042.00000000000;2063.00000000000;2055.00000000000;2040.00000000000;2031.00000000000;1979.00000000000;1995.00000000000;1961.00000000000;1918.00000000000;1925.00000000000;1879.00000000000;1878.00000000000;1871.00000000000;1862.00000000000;1858.00000000000;1861.00000000000;1872.00000000000;1840.00000000000;1835.00000000000;1855.00000000000;1865.00000000000;1881.00000000000;1897.00000000000;1851.00000000000;1866.00000000000;1887.00000000000;1875.00000000000;1877.00000000000;1893.00000000000;1889.00000000000;1862.00000000000;1865.00000000000;1870.00000000000;1863.00000000000;1881.00000000000;1877.00000000000;1866.00000000000;1879.00000000000;1876.00000000000;1888.00000000000;1848.00000000000;1874.00000000000;1832.00000000000;1851.00000000000;1851.00000000000;1830.00000000000;1845.00000000000;1843.00000000000;1839.00000000000;1839.00000000000;1841.00000000000
