COMMAND 5 SAMPLE 1
Accel X : 1201.00000000000;1251.00000000000;1244.00000000000;1219.00000000000;1206.00000000000;1182.00000000000;1206.00000000000;1225.00000000000;1213.00000000000;1208.00000000000;1155.00000000000;1136.00000000000;1171.00000000000;1192.00000000000;1216.00000000000;1188.00000000000;1162.00000000000;1188.00000000000;1210.00000000000;1249.00000000000;1210.00000000000;1225.00000000000;1217.00000000000;1216.00000000000;1246.00000000000;1226.00000000000;1212.00000000000;1198.00000000000;1231.00000000000;1226.00000000000;1243.00000000000;1204.00000000000;1187.00000000000;1209.00000000000;1230.00000000000;1244.00000000000;1204.00000000000;1178.00000000000;1211.00000000000;1241.00000000000;1234.00000000000;1230.00000000000;1207.00000000000;1193.00000000000;1230.00000000000;1219.00000000000;1239.00000000000;1222.00000000000;1227.00000000000;1236.00000000000;1214.00000000000;1232.00000000000;1218.00000000000;1189.00000000000;1219.00000000000;1222.00000000000;1227.00000000000;1228.00000000000;1219.00000000000;1233.00000000000;1203.00000000000;1236.00000000000;1240.00000000000;1212.00000000000;1226.00000000000;1209.00000000000;1228.00000000000;1209.00000000000;1235.00000000000;1209.00000000000;1200.00000000000;1216.00000000000;1228.00000000000;1211.00000000000;1214.00000000000;1197.00000000000;1216.00000000000;1224.00000000000;1213.00000000000;1219.00000000000;1211.00000000000;1207.00000000000;1224.00000000000;1198.00000000000;1223.00000000000;1239.00000000000;1196.00000000000;1222.00000000000;1199.00000000000;1203.00000000000;1190.00000000000;1190.00000000000;1199.00000000000;1208.00000000000;1193.00000000000;1225.00000000000;1219.00000000000;1222.00000000000;1212.00000000000;1223.00000000000;1215.00000000000;1202.00000000000;1216.00000000000;1236.00000000000;1226.00000000000;1234.00000000000;1231.00000000000;1227.00000000000;1214.00000000000;1220.00000000000;1213.00000000000;1205.00000000000;1210.00000000000;1210.00000000000;1215.00000000000;1209.00000000000;1200.00000000000;1196.00000000000;1203.00000000000;1212.00000000000;1198.00000000000;1212.00000000000;1195.00000000000;1209.00000000000;1206.00000000000;1211.00000000000;1209.00000000000;1193.00000000000;1207.00000000000;1198.00000000000;1172.00000000000;1205.00000000000;1203.00000000000;1198.00000000000;1197.00000000000;1191.00000000000;1206.00000000000;1212.00000000000;1201.00000000000;1225.00000000000;1217.00000000000;1213.00000000000;1222.00000000000;1210.00000000000;1216.00000000000;1197.00000000000;1208.00000000000;1209.00000000000;1246.00000000000;1199.00000000000
Accel Y : 2208.00000000000;2215.00000000000;2170.00000000000;2206.00000000000;2220.00000000000;2209.00000000000;2216.00000000000;2186.00000000000;2164.00000000000;2157.00000000000;2187.00000000000;2212.00000000000;2193.00000000000;2207.00000000000;2174.00000000000;2186.00000000000;2239.00000000000;2217.00000000000;2213.00000000000;2196.00000000000;2203.00000000000;2207.00000000000;2209.00000000000;2221.00000000000;2228.00000000000;2221.00000000000;2211.00000000000;2218.00000000000;2212.00000000000;2215.00000000000;2228.00000000000;2224.00000000000;2225.00000000000;2209.00000000000;2203.00000000000;2216.00000000000;2212.00000000000;2213.00000000000;2226.00000000000;2198.00000000000;2200.00000000000;2194.00000000000;2195.00000000000;2210.00000000000;2231.00000000000;2212.00000000000;2219.00000000000;2225.00000000000;2189.00000000000;2215.00000000000;2202.00000000000;2204.00000000000;2191.00000000000;2215.00000000000;2208.00000000000;2211.00000000000;2203.00000000000;2195.00000000000;2199.00000000000;2201.00000000000;2211.00000000000;2178.00000000000;2217.00000000000;2205.00000000000;2187.00000000000;2199.00000000000;2211.00000000000;2208.00000000000;2198.00000000000;2194.00000000000;2199.00000000000;2207.00000000000;2213.00000000000;2209.00000000000;2201.00000000000;2212.00000000000;2192.00000000000;2204.00000000000;2209.00000000000;2205.00000000000;2233.00000000000;2182.00000000000;2191.00000000000;2190.00000000000;2194.00000000000;2192.00000000000;2204.00000000000;2202.00000000000;2198.00000000000;2174.00000000000;2195.00000000000;2209.00000000000;2209.00000000000;2206.00000000000;2207.00000000000;2223.00000000000;2223.00000000000;2222.00000000000;2225.00000000000;2223.00000000000;2219.00000000000;2221.00000000000;2213.00000000000;2200.00000000000;2202.00000000000;2190.00000000000;2240.00000000000;2200.00000000000;2210.00000000000;2207.00000000000;2229.00000000000;2206.00000000000;2205.00000000000;2229.00000000000;2221.00000000000;2219.00000000000;2201.00000000000;2215.00000000000;2210.00000000000;2212.00000000000;2201.00000000000;2214.00000000000;2229.00000000000;2197.00000000000;2222.00000000000;2219.00000000000;2216.00000000000;2211.00000000000;2200.00000000000;2193.00000000000;2223.00000000000;2212.00000000000;2209.00000000000;2223.00000000000;2183.00000000000;2204.00000000000;2227.00000000000;2223.00000000000;2202.00000000000;2244.00000000000;2214.00000000000;2213.00000000000;2226.00000000000;2213.00000000000;2252.00000000000;2211.00000000000;2201.00000000000;2231.00000000000;2217.00000000000;2226.00000000000
Accel Z : 2355.00000000000;2357.00000000000;2328.00000000000;2342.00000000000;2351.00000000000;2346.00000000000;2336.00000000000;2304.00000000000;2335.00000000000;2288.00000000000;2338.00000000000;2340.00000000000;2358.00000000000;2330.00000000000;2324.00000000000;2322.00000000000;2321.00000000000;2337.00000000000;2330.00000000000;2356.00000000000;2332.00000000000;2293.00000000000;2332.00000000000;2352.00000000000;2372.00000000000;2337.00000000000;2341.00000000000;2318.00000000000;2348.00000000000;2355.00000000000;2327.00000000000;2346.00000000000;2345.00000000000;2376.00000000000;2326.00000000000;2310.00000000000;2327.00000000000;2361.00000000000;2347.00000000000;2332.00000000000;2348.00000000000;2335.00000000000;2332.00000000000;2382.00000000000;2360.00000000000;2350.00000000000;2358.00000000000;2361.00000000000;2319.00000000000;2366.00000000000;2376.00000000000;2353.00000000000;2355.00000000000;2360.00000000000;2342.00000000000;2350.00000000000;2371.00000000000;2337.00000000000;2379.00000000000;2347.00000000000;2368.00000000000;2364.00000000000;2352.00000000000;2337.00000000000;2343.00000000000;2346.00000000000;2357.00000000000;2336.00000000000;2356.00000000000;2332.00000000000;2351.00000000000;2318.00000000000;2333.00000000000;2355.00000000000;2342.00000000000;2368.00000000000;2339.00000000000;2328.00000000000;2336.00000000000;2344.00000000000;2340.00000000000;2355.00000000000;2342.00000000000;2335.00000000000;2341.00000000000;2335.00000000000;2351.00000000000;2356.00000000000;2333.00000000000;2345.00000000000;2360.00000000000;2343.00000000000;2370.00000000000;2367.00000000000;2361.00000000000;2349.00000000000;2365.00000000000;2348.00000000000;2363.00000000000;2340.00000000000;2323.00000000000;2354.00000000000;2343.00000000000;2337.00000000000;2328.00000000000;2344.00000000000;2341.00000000000;2338.00000000000;2348.00000000000;2352.00000000000;2331.00000000000;2346.00000000000;2346.00000000000;2354.00000000000;2330.00000000000;2327.00000000000;2334.00000000000;2347.00000000000;2347.00000000000;2347.00000000000;2360.00000000000;2353.00000000000;2322.00000000000;2337.00000000000;2320.00000000000;2341.00000000000;2325.00000000000;2337.00000000000;2316.00000000000;2318.00000000000;2340.00000000000;2340.00000000000;2331.00000000000;2320.00000000000;2323.00000000000;2342.00000000000;2333.00000000000;2341.00000000000;2359.00000000000;2334.00000000000;2341.00000000000;2339.00000000000;2345.00000000000;2342.00000000000;2330.00000000000;2353.00000000000;2328.00000000000;2327.00000000000;2344.00000000000;2335.00000000000
Gyro X : 1201.00000000000;1251.00000000000;1244.00000000000;1219.00000000000;1206.00000000000;1182.00000000000;1206.00000000000;1225.00000000000;1213.00000000000;1208.00000000000;1155.00000000000;1136.00000000000;1171.00000000000;1192.00000000000;1216.00000000000;1188.00000000000;1162.00000000000;1188.00000000000;1210.00000000000;1249.00000000000;1210.00000000000;1225.00000000000;1217.00000000000;1216.00000000000;1246.00000000000;1226.00000000000;1212.00000000000;1198.00000000000;1231.00000000000;1226.00000000000;1243.00000000000;1204.00000000000;1187.00000000000;1209.00000000000;1230.00000000000;1244.00000000000;1204.00000000000;1178.00000000000;1211.00000000000;1241.00000000000;1234.00000000000;1230.00000000000;1207.00000000000;1193.00000000000;1230.00000000000;1219.00000000000;1239.00000000000;1222.00000000000;1227.00000000000;1236.00000000000;1214.00000000000;1232.00000000000;1218.00000000000;1189.00000000000;1219.00000000000;1222.00000000000;1227.00000000000;1228.00000000000;1219.00000000000;1233.00000000000;1203.00000000000;1236.00000000000;1240.00000000000;1212.00000000000;1226.00000000000;1209.00000000000;1228.00000000000;1209.00000000000;1235.00000000000;1209.00000000000;1200.00000000000;1216.00000000000;1228.00000000000;1211.00000000000;1214.00000000000;1197.00000000000;1216.00000000000;1224.00000000000;1213.00000000000;1219.00000000000;1211.00000000000;1207.00000000000;1224.00000000000;1198.00000000000;1223.00000000000;1239.00000000000;1196.00000000000;1222.00000000000;1199.00000000000;1203.00000000000;1190.00000000000;1190.00000000000;1199.00000000000;1208.00000000000;1193.00000000000;1225.00000000000;1219.00000000000;1222.00000000000;1212.00000000000;1223.00000000000;1215.00000000000;1202.00000000000;1216.00000000000;1236.00000000000;1226.00000000000;1234.00000000000;1231.00000000000;1227.00000000000;1214.00000000000;1220.00000000000;1213.00000000000;1205.00000000000;1210.00000000000;1210.00000000000;1215.00000000000;1209.00000000000;1200.00000000000;1196.00000000000;1203.00000000000;1212.00000000000;1198.00000000000;1212.00000000000;1195.00000000000;1209.00000000000;1206.00000000000;1211.00000000000;1209.00000000000;1193.00000000000;1207.00000000000;1198.00000000000;1172.00000000000;1205.00000000000;1203.00000000000;1198.00000000000;1197.00000000000;1191.00000000000;1206.00000000000;1212.00000000000;1201.00000000000;1225.00000000000;1217.00000000000;1213.00000000000;1222.00000000000;1210.00000000000;1216.00000000000;1197.00000000000;1208.00000000000;1209.00000000000;1246.00000000000;1199.00000000000
Gyro Y : 2208.00000000000;2215.00000000000;2170.00000000000;2206.00000000000;2220.00000000000;2209.00000000000;2216.00000000000;2186.00000000000;2164.00000000000;2157.00000000000;2187.00000000000;2212.00000000000;2193.00000000000;2207.00000000000;2174.00000000000;2186.00000000000;2239.00000000000;2217.00000000000;2213.00000000000;2196.00000000000;2203.00000000000;2207.00000000000;2209.00000000000;2221.00000000000;2228.00000000000;2221.00000000000;2211.00000000000;2218.00000000000;2212.00000000000;2215.00000000000;2228.00000000000;2224.00000000000;2225.00000000000;2209.00000000000;2203.00000000000;2216.00000000000;2212.00000000000;2213.00000000000;2226.00000000000;2198.00000000000;2200.00000000000;2194.00000000000;2195.00000000000;2210.00000000000;2231.00000000000;2212.00000000000;2219.00000000000;2225.00000000000;2189.00000000000;2215.00000000000;2202.00000000000;2204.00000000000;2191.00000000000;2215.00000000000;2208.00000000000;2211.00000000000;2203.00000000000;2195.00000000000;2199.00000000000;2201.00000000000;2211.00000000000;2178.00000000000;2217.00000000000;2205.00000000000;2187.00000000000;2199.00000000000;2211.00000000000;2208.00000000000;2198.00000000000;2194.00000000000;2199.00000000000;2207.00000000000;2213.00000000000;2209.00000000000;2201.00000000000;2212.00000000000;2192.00000000000;2204.00000000000;2209.00000000000;2205.00000000000;2233.00000000000;2182.00000000000;2191.00000000000;2190.00000000000;2194.00000000000;2192.00000000000;2204.00000000000;2202.00000000000;2198.00000000000;2174.00000000000;2195.00000000000;2209.00000000000;2209.00000000000;2206.00000000000;2207.00000000000;2223.00000000000;2223.00000000000;2222.00000000000;2225.00000000000;2223.00000000000;2219.00000000000;2221.00000000000;2213.00000000000;2200.00000000000;2202.00000000000;2190.00000000000;2240.00000000000;2200.00000000000;2210.00000000000;2207.00000000000;2229.00000000000;2206.00000000000;2205.00000000000;2229.00000000000;2221.00000000000;2219.00000000000;2201.00000000000;2215.00000000000;2210.00000000000;2212.00000000000;2201.00000000000;2214.00000000000;2229.00000000000;2197.00000000000;2222.00000000000;2219.00000000000;2216.00000000000;2211.00000000000;2200.00000000000;2193.00000000000;2223.00000000000;2212.00000000000;2209.00000000000;2223.00000000000;2183.00000000000;2204.00000000000;2227.00000000000;2223.00000000000;2202.00000000000;2244.00000000000;2214.00000000000;2213.00000000000;2226.00000000000;2213.00000000000;2252.00000000000;2211.00000000000;2201.00000000000;2231.00000000000;2217.00000000000;2226.00000000000
Gyro Z : 2355.00000000000;2357.00000000000;2328.00000000000;2342.00000000000;2351.00000000000;2346.00000000000;2336.00000000000;2304.00000000000;2335.00000000000;2288.00000000000;2338.00000000000;2340.00000000000;2358.00000000000;2330.00000000000;2324.00000000000;2322.00000000000;2321.00000000000;2337.00000000000;2330.00000000000;2356.00000000000;2332.00000000000;2293.00000000000;2332.00000000000;2352.00000000000;2372.00000000000;2337.00000000000;2341.00000000000;2318.00000000000;2348.00000000000;2355.00000000000;2327.00000000000;2346.00000000000;2345.00000000000;2376.00000000000;2326.00000000000;2310.00000000000;2327.00000000000;2361.00000000000;2347.00000000000;2332.00000000000;2348.00000000000;2335.00000000000;2332.00000000000;2382.00000000000;2360.00000000000;2350.00000000000;2358.00000000000;2361.00000000000;2319.00000000000;2366.00000000000;2376.00000000000;2353.00000000000;2355.00000000000;2360.00000000000;2342.00000000000;2350.00000000000;2371.00000000000;2337.00000000000;2379.00000000000;2347.00000000000;2368.00000000000;2364.00000000000;2352.00000000000;2337.00000000000;2343.00000000000;2346.00000000000;2357.00000000000;2336.00000000000;2356.00000000000;2332.00000000000;2351.00000000000;2318.00000000000;2333.00000000000;2355.00000000000;2342.00000000000;2368.00000000000;2339.00000000000;2328.00000000000;2336.00000000000;2344.00000000000;2340.00000000000;2355.00000000000;2342.00000000000;2335.00000000000;2341.00000000000;2335.00000000000;2351.00000000000;2356.00000000000;2333.00000000000;2345.00000000000;2360.00000000000;2343.00000000000;2370.00000000000;2367.00000000000;2361.00000000000;2349.00000000000;2365.00000000000;2348.00000000000;2363.00000000000;2340.00000000000;2323.00000000000;2354.00000000000;2343.00000000000;2337.00000000000;2328.00000000000;2344.00000000000;2341.00000000000;2338.00000000000;2348.00000000000;2352.00000000000;2331.00000000000;2346.00000000000;2346.00000000000;2354.00000000000;2330.00000000000;2327.00000000000;2334.00000000000;2347.00000000000;2347.00000000000;2347.00000000000;2360.00000000000;2353.00000000000;2322.00000000000;2337.00000000000;2320.00000000000;2341.00000000000;2325.00000000000;2337.00000000000;2316.00000000000;2318.00000000000;2340.00000000000;2340.00000000000;2331.00000000000;2320.00000000000;2323.00000000000;2342.00000000000;2333.00000000000;2341.00000000000;2359.00000000000;2334.00000000000;2341.00000000000;2339.00000000000;2345.00000000000;2342.00000000000;2330.00000000000;2353.00000000000;2328.00000000000;2327.00000000000;2344.00000000000;2335.00000000000
