COMMAND 1 SAMPLE 1
Accel X : 993.000000000000;994.000000000000;982.000000000000;979.000000000000;987.000000000000;978.000000000000;986.000000000000;976.000000000000;980.000000000000;994.000000000000;985.000000000000;995.000000000000;996.000000000000;986.000000000000;972.000000000000;983.000000000000;983.000000000000;1004.00000000000;982.000000000000;990.000000000000;983.000000000000;993.000000000000;962.000000000000;981.000000000000;982.000000000000;1006.00000000000;999.000000000000;994.000000000000;962.000000000000;992.000000000000;998.000000000000;982.000000000000;987.000000000000;964.000000000000;988.000000000000;991.000000000000;985.000000000000;980.000000000000;961.000000000000;986.000000000000;987.000000000000;1004.00000000000;991.000000000000;996.000000000000;988.000000000000;975.000000000000;979.000000000000;998.000000000000;986.000000000000;959.000000000000;985.000000000000;978.000000000000;1031.00000000000;1027.00000000000;956.000000000000;861.000000000000;825.000000000000;810.000000000000;726.000000000000;726.000000000000;731.000000000000;797.000000000000;801.000000000000;801.000000000000;833.000000000000;969.000000000000;1141.00000000000;1151.00000000000;1179.00000000000;1226.00000000000;1278.00000000000;1500.00000000000;1614.00000000000;1593.00000000000;1629.00000000000;1651.00000000000;1769.00000000000;1891.00000000000;2119.00000000000;2273.00000000000;2223.00000000000;2129.00000000000;2039.00000000000;1855.00000000000;1736.00000000000;1635.00000000000;1684.00000000000;1792.00000000000;1825.00000000000;1853.00000000000;1888.00000000000;1866.00000000000;1886.00000000000;1805.00000000000;1742.00000000000;1778.00000000000;1765.00000000000;1721.00000000000;1631.00000000000;1518.00000000000;1370.00000000000;988.000000000000;505.000000000000;587.000000000000;772.000000000000;880.000000000000;1056.00000000000;1141.00000000000;941.000000000000;803.000000000000;707.000000000000;745.000000000000;639.000000000000;498.000000000000;644.000000000000;726.000000000000;864.000000000000;927.000000000000;908.000000000000;893.000000000000;893.000000000000;927.000000000000;988.000000000000;999.000000000000;1009.00000000000;1012.00000000000;999.000000000000;998.000000000000;1001.00000000000;988.000000000000;1000.00000000000;984.000000000000;985.000000000000;1004.00000000000;988.000000000000;1007.00000000000;1016.00000000000;993.000000000000;1015.00000000000;1007.00000000000;961.000000000000;1002.00000000000;975.000000000000;991.000000000000;988.000000000000;998.000000000000;988.000000000000;982.000000000000;1011.00000000000;997.000000000000
Accel Y : 2226.00000000000;2224.00000000000;2247.00000000000;2225.00000000000;2236.00000000000;2243.00000000000;2253.00000000000;2222.00000000000;2250.00000000000;2205.00000000000;2254.00000000000;2237.00000000000;2214.00000000000;2247.00000000000;2228.00000000000;2232.00000000000;2218.00000000000;2225.00000000000;2210.00000000000;2221.00000000000;2255.00000000000;2228.00000000000;2217.00000000000;2232.00000000000;2231.00000000000;2245.00000000000;2211.00000000000;2230.00000000000;2234.00000000000;2237.00000000000;2242.00000000000;2215.00000000000;2229.00000000000;2220.00000000000;2239.00000000000;2222.00000000000;2221.00000000000;2256.00000000000;2225.00000000000;2218.00000000000;2223.00000000000;2238.00000000000;2233.00000000000;2222.00000000000;2221.00000000000;2210.00000000000;2230.00000000000;2186.00000000000;2211.00000000000;2213.00000000000;2191.00000000000;2187.00000000000;2139.00000000000;2135.00000000000;2131.00000000000;2188.00000000000;2162.00000000000;2150.00000000000;2110.00000000000;2086.00000000000;2075.00000000000;2044.00000000000;2003.00000000000;1956.00000000000;1901.00000000000;1864.00000000000;1821.00000000000;1713.00000000000;1684.00000000000;1705.00000000000;1715.00000000000;1750.00000000000;1821.00000000000;1771.00000000000;1797.00000000000;1788.00000000000;1754.00000000000;1752.00000000000;1711.00000000000;1657.00000000000;1557.00000000000;1503.00000000000;1510.00000000000;1520.00000000000;1561.00000000000;1601.00000000000;1608.00000000000;1581.00000000000;1542.00000000000;1524.00000000000;1475.00000000000;1546.00000000000;1629.00000000000;1721.00000000000;1700.00000000000;1527.00000000000;1484.00000000000;1538.00000000000;1662.00000000000;1744.00000000000;1641.00000000000;1732.00000000000;1691.00000000000;1710.00000000000;1855.00000000000;1890.00000000000;1867.00000000000;1968.00000000000;2104.00000000000;2327.00000000000;2304.00000000000;2215.00000000000;2255.00000000000;2286.00000000000;2252.00000000000;2207.00000000000;2201.00000000000;2215.00000000000;2225.00000000000;2265.00000000000;2276.00000000000;2294.00000000000;2254.00000000000;2269.00000000000;2253.00000000000;2233.00000000000;2263.00000000000;2248.00000000000;2278.00000000000;2241.00000000000;2241.00000000000;2240.00000000000;2260.00000000000;2240.00000000000;2228.00000000000;2232.00000000000;2222.00000000000;2241.00000000000;2205.00000000000;2239.00000000000;2253.00000000000;2246.00000000000;2234.00000000000;2235.00000000000;2232.00000000000;2248.00000000000;2237.00000000000;2256.00000000000;2249.00000000000;2227.00000000000
Accel Z : 1865.00000000000;1851.00000000000;1836.00000000000;1824.00000000000;1827.00000000000;1807.00000000000;1834.00000000000;1825.00000000000;1835.00000000000;1855.00000000000;1829.00000000000;1827.00000000000;1839.00000000000;1846.00000000000;1838.00000000000;1843.00000000000;1814.00000000000;1823.00000000000;1830.00000000000;1805.00000000000;1819.00000000000;1817.00000000000;1830.00000000000;1831.00000000000;1803.00000000000;1817.00000000000;1810.00000000000;1828.00000000000;1801.00000000000;1828.00000000000;1805.00000000000;1801.00000000000;1816.00000000000;1800.00000000000;1809.00000000000;1820.00000000000;1825.00000000000;1808.00000000000;1815.00000000000;1823.00000000000;1792.00000000000;1812.00000000000;1805.00000000000;1799.00000000000;1798.00000000000;1804.00000000000;1817.00000000000;1811.00000000000;1793.00000000000;1794.00000000000;1811.00000000000;1785.00000000000;1810.00000000000;1823.00000000000;1741.00000000000;1703.00000000000;1639.00000000000;1543.00000000000;1459.00000000000;1393.00000000000;1249.00000000000;1180.00000000000;1047.00000000000;995.000000000000;813.000000000000;741.000000000000;694.000000000000;548.000000000000;487.000000000000;556.000000000000;624.000000000000;795.000000000000;978.000000000000;1222.00000000000;1455.00000000000;1794.00000000000;2126.00000000000;2220.00000000000;2205.00000000000;2164.00000000000;1998.00000000000;1883.00000000000;1825.00000000000;1915.00000000000;2053.00000000000;2139.00000000000;2064.00000000000;2017.00000000000;2004.00000000000;2011.00000000000;1974.00000000000;1917.00000000000;1845.00000000000;1803.00000000000;1661.00000000000;1494.00000000000;1426.00000000000;1399.00000000000;1226.00000000000;1185.00000000000;1293.00000000000;1018.00000000000;676.000000000000;684.000000000000;996.000000000000;1280.00000000000;1672.00000000000;1938.00000000000;2063.00000000000;2123.00000000000;2078.00000000000;2028.00000000000;1984.00000000000;1944.00000000000;1920.00000000000;1891.00000000000;1874.00000000000;1858.00000000000;1841.00000000000;1841.00000000000;1859.00000000000;1849.00000000000;1862.00000000000;1865.00000000000;1846.00000000000;1838.00000000000;1817.00000000000;1834.00000000000;1814.00000000000;1806.00000000000;1828.00000000000;1824.00000000000;1822.00000000000;1842.00000000000;1853.00000000000;1827.00000000000;1821.00000000000;1822.00000000000;1868.00000000000;1866.00000000000;1842.00000000000;1819.00000000000;1815.00000000000;1840.00000000000;1851.00000000000;1874.00000000000;1830.00000000000;1842.00000000000;1858.00000000000;1854.00000000000
Gyro X : 993.000000000000;994.000000000000;982.000000000000;979.000000000000;987.000000000000;978.000000000000;986.000000000000;976.000000000000;980.000000000000;994.000000000000;985.000000000000;995.000000000000;996.000000000000;986.000000000000;972.000000000000;983.000000000000;983.000000000000;1004.00000000000;982.000000000000;990.000000000000;983.000000000000;993.000000000000;962.000000000000;981.000000000000;982.000000000000;1006.00000000000;999.000000000000;994.000000000000;962.000000000000;992.000000000000;998.000000000000;982.000000000000;987.000000000000;964.000000000000;988.000000000000;991.000000000000;985.000000000000;980.000000000000;961.000000000000;986.000000000000;987.000000000000;1004.00000000000;991.000000000000;996.000000000000;988.000000000000;975.000000000000;979.000000000000;998.000000000000;986.000000000000;959.000000000000;985.000000000000;978.000000000000;1031.00000000000;1027.00000000000;956.000000000000;861.000000000000;825.000000000000;810.000000000000;726.000000000000;726.000000000000;731.000000000000;797.000000000000;801.000000000000;801.000000000000;833.000000000000;969.000000000000;1141.00000000000;1151.00000000000;1179.00000000000;1226.00000000000;1278.00000000000;1500.00000000000;1614.00000000000;1593.00000000000;1629.00000000000;1651.00000000000;1769.00000000000;1891.00000000000;2119.00000000000;2273.00000000000;2223.00000000000;2129.00000000000;2039.00000000000;1855.00000000000;1736.00000000000;1635.00000000000;1684.00000000000;1792.00000000000;1825.00000000000;1853.00000000000;1888.00000000000;1866.00000000000;1886.00000000000;1805.00000000000;1742.00000000000;1778.00000000000;1765.00000000000;1721.00000000000;1631.00000000000;1518.00000000000;1370.00000000000;988.000000000000;505.000000000000;587.000000000000;772.000000000000;880.000000000000;1056.00000000000;1141.00000000000;941.000000000000;803.000000000000;707.000000000000;745.000000000000;639.000000000000;498.000000000000;644.000000000000;726.000000000000;864.000000000000;927.000000000000;908.000000000000;893.000000000000;893.000000000000;927.000000000000;988.000000000000;999.000000000000;1009.00000000000;1012.00000000000;999.000000000000;998.000000000000;1001.00000000000;988.000000000000;1000.00000000000;984.000000000000;985.000000000000;1004.00000000000;988.000000000000;1007.00000000000;1016.00000000000;993.000000000000;1015.00000000000;1007.00000000000;961.000000000000;1002.00000000000;975.000000000000;991.000000000000;988.000000000000;998.000000000000;988.000000000000;982.000000000000;1011.00000000000;997.000000000000
Gyro Y : 2226.00000000000;2224.00000000000;2247.00000000000;2225.00000000000;2236.00000000000;2243.00000000000;2253.00000000000;2222.00000000000;2250.00000000000;2205.00000000000;2254.00000000000;2237.00000000000;2214.00000000000;2247.00000000000;2228.00000000000;2232.00000000000;2218.00000000000;2225.00000000000;2210.00000000000;2221.00000000000;2255.00000000000;2228.00000000000;2217.00000000000;2232.00000000000;2231.00000000000;2245.00000000000;2211.00000000000;2230.00000000000;2234.00000000000;2237.00000000000;2242.00000000000;2215.00000000000;2229.00000000000;2220.00000000000;2239.00000000000;2222.00000000000;2221.00000000000;2256.00000000000;2225.00000000000;2218.00000000000;2223.00000000000;2238.00000000000;2233.00000000000;2222.00000000000;2221.00000000000;2210.00000000000;2230.00000000000;2186.00000000000;2211.00000000000;2213.00000000000;2191.00000000000;2187.00000000000;2139.00000000000;2135.00000000000;2131.00000000000;2188.00000000000;2162.00000000000;2150.00000000000;2110.00000000000;2086.00000000000;2075.00000000000;2044.00000000000;2003.00000000000;1956.00000000000;1901.00000000000;1864.00000000000;1821.00000000000;1713.00000000000;1684.00000000000;1705.00000000000;1715.00000000000;1750.00000000000;1821.00000000000;1771.00000000000;1797.00000000000;1788.00000000000;1754.00000000000;1752.00000000000;1711.00000000000;1657.00000000000;1557.00000000000;1503.00000000000;1510.00000000000;1520.00000000000;1561.00000000000;1601.00000000000;1608.00000000000;1581.00000000000;1542.00000000000;1524.00000000000;1475.00000000000;1546.00000000000;1629.00000000000;1721.00000000000;1700.00000000000;1527.00000000000;1484.00000000000;1538.00000000000;1662.00000000000;1744.00000000000;1641.00000000000;1732.00000000000;1691.00000000000;1710.00000000000;1855.00000000000;1890.00000000000;1867.00000000000;1968.00000000000;2104.00000000000;2327.00000000000;2304.00000000000;2215.00000000000;2255.00000000000;2286.00000000000;2252.00000000000;2207.00000000000;2201.00000000000;2215.00000000000;2225.00000000000;2265.00000000000;2276.00000000000;2294.00000000000;2254.00000000000;2269.00000000000;2253.00000000000;2233.00000000000;2263.00000000000;2248.00000000000;2278.00000000000;2241.00000000000;2241.00000000000;2240.00000000000;2260.00000000000;2240.00000000000;2228.00000000000;2232.00000000000;2222.00000000000;2241.00000000000;2205.00000000000;2239.00000000000;2253.00000000000;2246.00000000000;2234.00000000000;2235.00000000000;2232.00000000000;2248.00000000000;2237.00000000000;2256.00000000000;2249.00000000000;2227.00000000000
Gyro Z : 1865.00000000000;1851.00000000000;1836.00000000000;1824.00000000000;1827.00000000000;1807.00000000000;1834.00000000000;1825.00000000000;1835.00000000000;1855.00000000000;1829.00000000000;1827.00000000000;1839.00000000000;1846.00000000000;1838.00000000000;1843.00000000000;1814.00000000000;1823.00000000000;1830.00000000000;1805.00000000000;1819.00000000000;1817.00000000000;1830.00000000000;1831.00000000000;1803.00000000000;1817.00000000000;1810.00000000000;1828.00000000000;1801.00000000000;1828.00000000000;1805.00000000000;1801.00000000000;1816.00000000000;1800.00000000000;1809.00000000000;1820.00000000000;1825.00000000000;1808.00000000000;1815.00000000000;1823.00000000000;1792.00000000000;1812.00000000000;1805.00000000000;1799.00000000000;1798.00000000000;1804.00000000000;1817.00000000000;1811.00000000000;1793.00000000000;1794.00000000000;1811.00000000000;1785.00000000000;1810.00000000000;1823.00000000000;1741.00000000000;1703.00000000000;1639.00000000000;1543.00000000000;1459.00000000000;1393.00000000000;1249.00000000000;1180.00000000000;1047.00000000000;995.000000000000;813.000000000000;741.000000000000;694.000000000000;548.000000000000;487.000000000000;556.000000000000;624.000000000000;795.000000000000;978.000000000000;1222.00000000000;1455.00000000000;1794.00000000000;2126.00000000000;2220.00000000000;2205.00000000000;2164.00000000000;1998.00000000000;1883.00000000000;1825.00000000000;1915.00000000000;2053.00000000000;2139.00000000000;2064.00000000000;2017.00000000000;2004.00000000000;2011.00000000000;1974.00000000000;1917.00000000000;1845.00000000000;1803.00000000000;1661.00000000000;1494.00000000000;1426.00000000000;1399.00000000000;1226.00000000000;1185.00000000000;1293.00000000000;1018.00000000000;676.000000000000;684.000000000000;996.000000000000;1280.00000000000;1672.00000000000;1938.00000000000;2063.00000000000;2123.00000000000;2078.00000000000;2028.00000000000;1984.00000000000;1944.00000000000;1920.00000000000;1891.00000000000;1874.00000000000;1858.00000000000;1841.00000000000;1841.00000000000;1859.00000000000;1849.00000000000;1862.00000000000;1865.00000000000;1846.00000000000;1838.00000000000;1817.00000000000;1834.00000000000;1814.00000000000;1806.00000000000;1828.00000000000;1824.00000000000;1822.00000000000;1842.00000000000;1853.00000000000;1827.00000000000;1821.00000000000;1822.00000000000;1868.00000000000;1866.00000000000;1842.00000000000;1819.00000000000;1815.00000000000;1840.00000000000;1851.00000000000;1874.00000000000;1830.00000000000;1842.00000000000;1858.00000000000;1854.00000000000
