COMMAND 1 SAMPLE 1
Accel X : 989.000000000000;980.000000000000;982.000000000000;987.000000000000;963.000000000000;982.000000000000;975.000000000000;978.000000000000;979.000000000000;998.000000000000;1003.00000000000;995.000000000000;981.000000000000;975.000000000000;975.000000000000;974.000000000000;978.000000000000;997.000000000000;991.000000000000;977.000000000000;963.000000000000;965.000000000000;966.000000000000;994.000000000000;973.000000000000;967.000000000000;959.000000000000;934.000000000000;990.000000000000;976.000000000000;953.000000000000;965.000000000000;967.000000000000;973.000000000000;969.000000000000;974.000000000000;974.000000000000;981.000000000000;988.000000000000;974.000000000000;987.000000000000;978.000000000000;983.000000000000;991.000000000000;965.000000000000;961.000000000000;906.000000000000;911.000000000000;839.000000000000;843.000000000000;775.000000000000;694.000000000000;681.000000000000;721.000000000000;754.000000000000;764.000000000000;896.000000000000;880.000000000000;935.000000000000;1056.00000000000;1117.00000000000;1209.00000000000;1231.00000000000;1317.00000000000;1416.00000000000;1450.00000000000;1567.00000000000;1674.00000000000;1841.00000000000;1989.00000000000;1986.00000000000;2237.00000000000;2287.00000000000;2179.00000000000;2033.00000000000;1918.00000000000;1829.00000000000;1859.00000000000;1851.00000000000;1800.00000000000;1784.00000000000;1748.00000000000;1799.00000000000;1834.00000000000;1829.00000000000;1780.00000000000;1675.00000000000;1658.00000000000;1628.00000000000;1538.00000000000;1474.00000000000;1523.00000000000;1403.00000000000;1049.00000000000;841.000000000000;944.000000000000;1174.00000000000;971.000000000000;518.000000000000;312.000000000000;636.000000000000;615.000000000000;560.000000000000;615.000000000000;671.000000000000;746.000000000000;947.000000000000;959.000000000000;961.000000000000;1008.00000000000;1020.00000000000;1086.00000000000;1052.00000000000;1039.00000000000;1018.00000000000;1025.00000000000;1013.00000000000;1032.00000000000;1014.00000000000;965.000000000000;981.000000000000;988.000000000000;1011.00000000000;1033.00000000000;1024.00000000000;1002.00000000000;989.000000000000;966.000000000000;1018.00000000000;1024.00000000000;1013.00000000000;997.000000000000;994.000000000000;1025.00000000000;1005.00000000000;1014.00000000000;995.000000000000;987.000000000000;1009.00000000000;1024.00000000000;1000.00000000000;1015.00000000000;989.000000000000;1001.00000000000;1008.00000000000;1024.00000000000;1003.00000000000;985.000000000000;1001.00000000000;999.000000000000
Accel Y : 2195.00000000000;2191.00000000000;2187.00000000000;2185.00000000000;2214.00000000000;2191.00000000000;2195.00000000000;2189.00000000000;2165.00000000000;2157.00000000000;2176.00000000000;2191.00000000000;2201.00000000000;2210.00000000000;2192.00000000000;2183.00000000000;2194.00000000000;2201.00000000000;2199.00000000000;2201.00000000000;2206.00000000000;2211.00000000000;2195.00000000000;2190.00000000000;2197.00000000000;2206.00000000000;2197.00000000000;2193.00000000000;2204.00000000000;2204.00000000000;2217.00000000000;2213.00000000000;2199.00000000000;2212.00000000000;2210.00000000000;2193.00000000000;2191.00000000000;2210.00000000000;2219.00000000000;2196.00000000000;2211.00000000000;2210.00000000000;2208.00000000000;2195.00000000000;2190.00000000000;2182.00000000000;2152.00000000000;2119.00000000000;2148.00000000000;2088.00000000000;2116.00000000000;2121.00000000000;2114.00000000000;2102.00000000000;2017.00000000000;1991.00000000000;1934.00000000000;1881.00000000000;1873.00000000000;1823.00000000000;1748.00000000000;1732.00000000000;1693.00000000000;1705.00000000000;1715.00000000000;1736.00000000000;1756.00000000000;1767.00000000000;1741.00000000000;1685.00000000000;1560.00000000000;1613.00000000000;1677.00000000000;1671.00000000000;1633.00000000000;1631.00000000000;1602.00000000000;1589.00000000000;1631.00000000000;1611.00000000000;1577.00000000000;1490.00000000000;1454.00000000000;1497.00000000000;1616.00000000000;1695.00000000000;1496.00000000000;1479.00000000000;1454.00000000000;1536.00000000000;1625.00000000000;1570.00000000000;1582.00000000000;1585.00000000000;1699.00000000000;1887.00000000000;1952.00000000000;2057.00000000000;2105.00000000000;2213.00000000000;2203.00000000000;2258.00000000000;2155.00000000000;2095.00000000000;2101.00000000000;2161.00000000000;2130.00000000000;2138.00000000000;2159.00000000000;2162.00000000000;2182.00000000000;2178.00000000000;2227.00000000000;2211.00000000000;2227.00000000000;2213.00000000000;2236.00000000000;2231.00000000000;2247.00000000000;2238.00000000000;2199.00000000000;2224.00000000000;2210.00000000000;2205.00000000000;2219.00000000000;2208.00000000000;2235.00000000000;2207.00000000000;2219.00000000000;2242.00000000000;2213.00000000000;2232.00000000000;2176.00000000000;2203.00000000000;2191.00000000000;2186.00000000000;2203.00000000000;2207.00000000000;2180.00000000000;2201.00000000000;2217.00000000000;2216.00000000000;2202.00000000000;2191.00000000000;2216.00000000000;2198.00000000000;2188.00000000000;2215.00000000000;2206.00000000000;2188.00000000000
Accel Z : 1812.00000000000;1804.00000000000;1773.00000000000;1786.00000000000;1787.00000000000;1812.00000000000;1784.00000000000;1792.00000000000;1792.00000000000;1819.00000000000;1794.00000000000;1755.00000000000;1803.00000000000;1791.00000000000;1779.00000000000;1780.00000000000;1780.00000000000;1764.00000000000;1775.00000000000;1781.00000000000;1795.00000000000;1781.00000000000;1777.00000000000;1772.00000000000;1794.00000000000;1789.00000000000;1791.00000000000;1784.00000000000;1774.00000000000;1806.00000000000;1766.00000000000;1793.00000000000;1767.00000000000;1783.00000000000;1783.00000000000;1781.00000000000;1787.00000000000;1815.00000000000;1789.00000000000;1789.00000000000;1785.00000000000;1773.00000000000;1775.00000000000;1740.00000000000;1743.00000000000;1748.00000000000;1678.00000000000;1633.00000000000;1540.00000000000;1494.00000000000;1378.00000000000;1251.00000000000;1202.00000000000;1166.00000000000;1068.00000000000;993.000000000000;996.000000000000;923.000000000000;820.000000000000;780.000000000000;733.000000000000;772.000000000000;716.000000000000;759.000000000000;881.000000000000;1103.00000000000;1495.00000000000;1777.00000000000;2169.00000000000;2226.00000000000;2084.00000000000;2082.00000000000;2201.00000000000;2210.00000000000;2150.00000000000;2050.00000000000;1966.00000000000;1898.00000000000;1899.00000000000;1972.00000000000;2009.00000000000;1946.00000000000;1932.00000000000;1868.00000000000;1838.00000000000;1704.00000000000;1553.00000000000;1447.00000000000;1381.00000000000;1282.00000000000;1204.00000000000;1238.00000000000;1101.00000000000;934.000000000000;877.000000000000;1091.00000000000;1515.00000000000;1719.00000000000;1641.00000000000;1663.00000000000;1934.00000000000;1914.00000000000;1868.00000000000;1896.00000000000;1914.00000000000;1882.00000000000;1976.00000000000;1963.00000000000;1954.00000000000;1955.00000000000;1946.00000000000;1992.00000000000;1976.00000000000;1982.00000000000;1959.00000000000;1914.00000000000;1943.00000000000;1971.00000000000;1949.00000000000;1976.00000000000;1948.00000000000;1920.00000000000;1929.00000000000;1959.00000000000;1977.00000000000;1970.00000000000;1957.00000000000;1910.00000000000;1951.00000000000;1988.00000000000;1987.00000000000;1955.00000000000;1951.00000000000;1948.00000000000;1945.00000000000;1956.00000000000;1930.00000000000;1949.00000000000;1942.00000000000;1967.00000000000;1949.00000000000;1942.00000000000;1946.00000000000;1934.00000000000;1942.00000000000;1927.00000000000;1942.00000000000;1929.00000000000;1925.00000000000;1909.00000000000
Gyro X : 989.000000000000;980.000000000000;982.000000000000;987.000000000000;963.000000000000;982.000000000000;975.000000000000;978.000000000000;979.000000000000;998.000000000000;1003.00000000000;995.000000000000;981.000000000000;975.000000000000;975.000000000000;974.000000000000;978.000000000000;997.000000000000;991.000000000000;977.000000000000;963.000000000000;965.000000000000;966.000000000000;994.000000000000;973.000000000000;967.000000000000;959.000000000000;934.000000000000;990.000000000000;976.000000000000;953.000000000000;965.000000000000;967.000000000000;973.000000000000;969.000000000000;974.000000000000;974.000000000000;981.000000000000;988.000000000000;974.000000000000;987.000000000000;978.000000000000;983.000000000000;991.000000000000;965.000000000000;961.000000000000;906.000000000000;911.000000000000;839.000000000000;843.000000000000;775.000000000000;694.000000000000;681.000000000000;721.000000000000;754.000000000000;764.000000000000;896.000000000000;880.000000000000;935.000000000000;1056.00000000000;1117.00000000000;1209.00000000000;1231.00000000000;1317.00000000000;1416.00000000000;1450.00000000000;1567.00000000000;1674.00000000000;1841.00000000000;1989.00000000000;1986.00000000000;2237.00000000000;2287.00000000000;2179.00000000000;2033.00000000000;1918.00000000000;1829.00000000000;1859.00000000000;1851.00000000000;1800.00000000000;1784.00000000000;1748.00000000000;1799.00000000000;1834.00000000000;1829.00000000000;1780.00000000000;1675.00000000000;1658.00000000000;1628.00000000000;1538.00000000000;1474.00000000000;1523.00000000000;1403.00000000000;1049.00000000000;841.000000000000;944.000000000000;1174.00000000000;971.000000000000;518.000000000000;312.000000000000;636.000000000000;615.000000000000;560.000000000000;615.000000000000;671.000000000000;746.000000000000;947.000000000000;959.000000000000;961.000000000000;1008.00000000000;1020.00000000000;1086.00000000000;1052.00000000000;1039.00000000000;1018.00000000000;1025.00000000000;1013.00000000000;1032.00000000000;1014.00000000000;965.000000000000;981.000000000000;988.000000000000;1011.00000000000;1033.00000000000;1024.00000000000;1002.00000000000;989.000000000000;966.000000000000;1018.00000000000;1024.00000000000;1013.00000000000;997.000000000000;994.000000000000;1025.00000000000;1005.00000000000;1014.00000000000;995.000000000000;987.000000000000;1009.00000000000;1024.00000000000;1000.00000000000;1015.00000000000;989.000000000000;1001.00000000000;1008.00000000000;1024.00000000000;1003.00000000000;985.000000000000;1001.00000000000;999.000000000000
Gyro Y : 2195.00000000000;2191.00000000000;2187.00000000000;2185.00000000000;2214.00000000000;2191.00000000000;2195.00000000000;2189.00000000000;2165.00000000000;2157.00000000000;2176.00000000000;2191.00000000000;2201.00000000000;2210.00000000000;2192.00000000000;2183.00000000000;2194.00000000000;2201.00000000000;2199.00000000000;2201.00000000000;2206.00000000000;2211.00000000000;2195.00000000000;2190.00000000000;2197.00000000000;2206.00000000000;2197.00000000000;2193.00000000000;2204.00000000000;2204.00000000000;2217.00000000000;2213.00000000000;2199.00000000000;2212.00000000000;2210.00000000000;2193.00000000000;2191.00000000000;2210.00000000000;2219.00000000000;2196.00000000000;2211.00000000000;2210.00000000000;2208.00000000000;2195.00000000000;2190.00000000000;2182.00000000000;2152.00000000000;2119.00000000000;2148.00000000000;2088.00000000000;2116.00000000000;2121.00000000000;2114.00000000000;2102.00000000000;2017.00000000000;1991.00000000000;1934.00000000000;1881.00000000000;1873.00000000000;1823.00000000000;1748.00000000000;1732.00000000000;1693.00000000000;1705.00000000000;1715.00000000000;1736.00000000000;1756.00000000000;1767.00000000000;1741.00000000000;1685.00000000000;1560.00000000000;1613.00000000000;1677.00000000000;1671.00000000000;1633.00000000000;1631.00000000000;1602.00000000000;1589.00000000000;1631.00000000000;1611.00000000000;1577.00000000000;1490.00000000000;1454.00000000000;1497.00000000000;1616.00000000000;1695.00000000000;1496.00000000000;1479.00000000000;1454.00000000000;1536.00000000000;1625.00000000000;1570.00000000000;1582.00000000000;1585.00000000000;1699.00000000000;1887.00000000000;1952.00000000000;2057.00000000000;2105.00000000000;2213.00000000000;2203.00000000000;2258.00000000000;2155.00000000000;2095.00000000000;2101.00000000000;2161.00000000000;2130.00000000000;2138.00000000000;2159.00000000000;2162.00000000000;2182.00000000000;2178.00000000000;2227.00000000000;2211.00000000000;2227.00000000000;2213.00000000000;2236.00000000000;2231.00000000000;2247.00000000000;2238.00000000000;2199.00000000000;2224.00000000000;2210.00000000000;2205.00000000000;2219.00000000000;2208.00000000000;2235.00000000000;2207.00000000000;2219.00000000000;2242.00000000000;2213.00000000000;2232.00000000000;2176.00000000000;2203.00000000000;2191.00000000000;2186.00000000000;2203.00000000000;2207.00000000000;2180.00000000000;2201.00000000000;2217.00000000000;2216.00000000000;2202.00000000000;2191.00000000000;2216.00000000000;2198.00000000000;2188.00000000000;2215.00000000000;2206.00000000000;2188.00000000000
Gyro Z : 1812.00000000000;1804.00000000000;1773.00000000000;1786.00000000000;1787.00000000000;1812.00000000000;1784.00000000000;1792.00000000000;1792.00000000000;1819.00000000000;1794.00000000000;1755.00000000000;1803.00000000000;1791.00000000000;1779.00000000000;1780.00000000000;1780.00000000000;1764.00000000000;1775.00000000000;1781.00000000000;1795.00000000000;1781.00000000000;1777.00000000000;1772.00000000000;1794.00000000000;1789.00000000000;1791.00000000000;1784.00000000000;1774.00000000000;1806.00000000000;1766.00000000000;1793.00000000000;1767.00000000000;1783.00000000000;1783.00000000000;1781.00000000000;1787.00000000000;1815.00000000000;1789.00000000000;1789.00000000000;1785.00000000000;1773.00000000000;1775.00000000000;1740.00000000000;1743.00000000000;1748.00000000000;1678.00000000000;1633.00000000000;1540.00000000000;1494.00000000000;1378.00000000000;1251.00000000000;1202.00000000000;1166.00000000000;1068.00000000000;993.000000000000;996.000000000000;923.000000000000;820.000000000000;780.000000000000;733.000000000000;772.000000000000;716.000000000000;759.000000000000;881.000000000000;1103.00000000000;1495.00000000000;1777.00000000000;2169.00000000000;2226.00000000000;2084.00000000000;2082.00000000000;2201.00000000000;2210.00000000000;2150.00000000000;2050.00000000000;1966.00000000000;1898.00000000000;1899.00000000000;1972.00000000000;2009.00000000000;1946.00000000000;1932.00000000000;1868.00000000000;1838.00000000000;1704.00000000000;1553.00000000000;1447.00000000000;1381.00000000000;1282.00000000000;1204.00000000000;1238.00000000000;1101.00000000000;934.000000000000;877.000000000000;1091.00000000000;1515.00000000000;1719.00000000000;1641.00000000000;1663.00000000000;1934.00000000000;1914.00000000000;1868.00000000000;1896.00000000000;1914.00000000000;1882.00000000000;1976.00000000000;1963.00000000000;1954.00000000000;1955.00000000000;1946.00000000000;1992.00000000000;1976.00000000000;1982.00000000000;1959.00000000000;1914.00000000000;1943.00000000000;1971.00000000000;1949.00000000000;1976.00000000000;1948.00000000000;1920.00000000000;1929.00000000000;1959.00000000000;1977.00000000000;1970.00000000000;1957.00000000000;1910.00000000000;1951.00000000000;1988.00000000000;1987.00000000000;1955.00000000000;1951.00000000000;1948.00000000000;1945.00000000000;1956.00000000000;1930.00000000000;1949.00000000000;1942.00000000000;1967.00000000000;1949.00000000000;1942.00000000000;1946.00000000000;1934.00000000000;1942.00000000000;1927.00000000000;1942.00000000000;1929.00000000000;1925.00000000000;1909.00000000000
