COMMAND 6 SAMPLE 1
Accel X : 922.000000000000;918.000000000000;950.000000000000;963.000000000000;984.000000000000;997.000000000000;1007.00000000000;1032.00000000000;1033.00000000000;1025.00000000000;1028.00000000000;1001.00000000000;990.000000000000;985.000000000000;958.000000000000;985.000000000000;982.000000000000;993.000000000000;976.000000000000;973.000000000000;986.000000000000;989.000000000000;975.000000000000;952.000000000000;975.000000000000;986.000000000000;956.000000000000;972.000000000000;954.000000000000;964.000000000000;957.000000000000;934.000000000000;995.000000000000;975.000000000000;997.000000000000;976.000000000000;964.000000000000;981.000000000000;982.000000000000;976.000000000000;957.000000000000;963.000000000000;954.000000000000;963.000000000000;928.000000000000;711.000000000000;384.000000000000;611.000000000000;1002.00000000000;738.000000000000;970.000000000000;1816.00000000000;2377.00000000000;1937.00000000000;1729.00000000000;1693.00000000000;1772.00000000000;2098.00000000000;2131.00000000000;1947.00000000000;1953.00000000000;1968.00000000000;2022.00000000000;2000.00000000000;1980.00000000000;1924.00000000000;1945.00000000000;1939.00000000000;1877.00000000000;1837.00000000000;1870.00000000000;1917.00000000000;1904.00000000000;1863.00000000000;1869.00000000000;1867.00000000000;1968.00000000000;1997.00000000000;2017.00000000000;1950.00000000000;1950.00000000000;2119.00000000000;2134.00000000000;1960.00000000000;1478.00000000000;1139.00000000000;1136.00000000000;910.000000000000;611.000000000000;517.000000000000;715.000000000000;944.000000000000;1001.00000000000;916.000000000000;887.000000000000;870.000000000000;941.000000000000;972.000000000000;958.000000000000;935.000000000000;944.000000000000;943.000000000000;958.000000000000;982.000000000000;982.000000000000;971.000000000000;1008.00000000000;1018.00000000000;999.000000000000;949.000000000000;977.000000000000;955.000000000000;980.000000000000;988.000000000000;1008.00000000000;1014.00000000000;977.000000000000;967.000000000000;973.000000000000;980.000000000000;996.000000000000;988.000000000000;977.000000000000;985.000000000000;999.000000000000;984.000000000000;1016.00000000000;1001.00000000000;1004.00000000000;990.000000000000;1017.00000000000;1003.00000000000;997.000000000000;1006.00000000000;962.000000000000;981.000000000000;968.000000000000;987.000000000000;974.000000000000;994.000000000000;979.000000000000;969.000000000000;953.000000000000;989.000000000000;985.000000000000;962.000000000000;962.000000000000;975.000000000000;996.000000000000;962.000000000000
Accel Y : 2216.00000000000;2220.00000000000;2207.00000000000;2201.00000000000;2191.00000000000;2191.00000000000;2171.00000000000;2184.00000000000;2160.00000000000;2189.00000000000;2154.00000000000;2181.00000000000;2172.00000000000;2181.00000000000;2179.00000000000;2177.00000000000;2158.00000000000;2150.00000000000;2175.00000000000;2180.00000000000;2154.00000000000;2161.00000000000;2187.00000000000;2181.00000000000;2167.00000000000;2160.00000000000;2168.00000000000;2159.00000000000;2192.00000000000;2176.00000000000;2169.00000000000;2177.00000000000;2167.00000000000;2168.00000000000;2154.00000000000;2137.00000000000;2171.00000000000;2178.00000000000;2141.00000000000;2152.00000000000;2150.00000000000;2147.00000000000;2159.00000000000;2129.00000000000;2148.00000000000;2175.00000000000;2147.00000000000;2198.00000000000;2133.00000000000;2124.00000000000;2091.00000000000;1996.00000000000;2108.00000000000;2129.00000000000;2208.00000000000;2226.00000000000;2291.00000000000;2331.00000000000;2327.00000000000;2330.00000000000;2417.00000000000;2409.00000000000;2403.00000000000;2421.00000000000;2395.00000000000;2434.00000000000;2414.00000000000;2392.00000000000;2431.00000000000;2410.00000000000;2406.00000000000;2392.00000000000;2376.00000000000;2367.00000000000;2363.00000000000;2357.00000000000;2311.00000000000;2363.00000000000;2344.00000000000;2368.00000000000;2287.00000000000;2276.00000000000;2376.00000000000;2402.00000000000;2371.00000000000;2309.00000000000;2282.00000000000;2201.00000000000;2214.00000000000;2193.00000000000;2176.00000000000;2087.00000000000;2077.00000000000;2101.00000000000;2089.00000000000;2146.00000000000;2163.00000000000;2134.00000000000;2171.00000000000;2163.00000000000;2135.00000000000;2161.00000000000;2167.00000000000;2151.00000000000;2169.00000000000;2199.00000000000;2177.00000000000;2163.00000000000;2167.00000000000;2172.00000000000;2186.00000000000;2185.00000000000;2167.00000000000;2183.00000000000;2171.00000000000;2176.00000000000;2187.00000000000;2166.00000000000;2189.00000000000;2191.00000000000;2164.00000000000;2169.00000000000;2170.00000000000;2163.00000000000;2166.00000000000;2164.00000000000;2187.00000000000;2179.00000000000;2165.00000000000;2149.00000000000;2141.00000000000;2146.00000000000;2165.00000000000;2189.00000000000;2177.00000000000;2178.00000000000;2178.00000000000;2149.00000000000;2168.00000000000;2187.00000000000;2172.00000000000;2187.00000000000;2195.00000000000;2186.00000000000;2190.00000000000;2165.00000000000;2188.00000000000;2181.00000000000;2162.00000000000;2155.00000000000
Accel Z : 1660.00000000000;1664.00000000000;1696.00000000000;1676.00000000000;1667.00000000000;1683.00000000000;1691.00000000000;1701.00000000000;1703.00000000000;1690.00000000000;1715.00000000000;1697.00000000000;1708.00000000000;1704.00000000000;1698.00000000000;1713.00000000000;1716.00000000000;1687.00000000000;1711.00000000000;1685.00000000000;1689.00000000000;1689.00000000000;1696.00000000000;1670.00000000000;1672.00000000000;1673.00000000000;1694.00000000000;1674.00000000000;1669.00000000000;1673.00000000000;1674.00000000000;1686.00000000000;1689.00000000000;1662.00000000000;1668.00000000000;1704.00000000000;1691.00000000000;1673.00000000000;1672.00000000000;1685.00000000000;1687.00000000000;1698.00000000000;1686.00000000000;1686.00000000000;1678.00000000000;1589.00000000000;1585.00000000000;1687.00000000000;1843.00000000000;1769.00000000000;1685.00000000000;1894.00000000000;2473.00000000000;2559.00000000000;2551.00000000000;2551.00000000000;2618.00000000000;2670.00000000000;2671.00000000000;2732.00000000000;2785.00000000000;2759.00000000000;2734.00000000000;2693.00000000000;2709.00000000000;2733.00000000000;2750.00000000000;2726.00000000000;2694.00000000000;2683.00000000000;2675.00000000000;2699.00000000000;2675.00000000000;2682.00000000000;2670.00000000000;2675.00000000000;2665.00000000000;2666.00000000000;2605.00000000000;2632.00000000000;2610.00000000000;2642.00000000000;2672.00000000000;2446.00000000000;2141.00000000000;1842.00000000000;1704.00000000000;1715.00000000000;1666.00000000000;1775.00000000000;1779.00000000000;1730.00000000000;1679.00000000000;1615.00000000000;1597.00000000000;1627.00000000000;1651.00000000000;1640.00000000000;1659.00000000000;1631.00000000000;1650.00000000000;1631.00000000000;1608.00000000000;1654.00000000000;1642.00000000000;1651.00000000000;1648.00000000000;1679.00000000000;1626.00000000000;1670.00000000000;1649.00000000000;1643.00000000000;1648.00000000000;1640.00000000000;1638.00000000000;1681.00000000000;1623.00000000000;1663.00000000000;1683.00000000000;1643.00000000000;1646.00000000000;1623.00000000000;1643.00000000000;1670.00000000000;1659.00000000000;1657.00000000000;1656.00000000000;1668.00000000000;1662.00000000000;1663.00000000000;1682.00000000000;1660.00000000000;1636.00000000000;1657.00000000000;1671.00000000000;1702.00000000000;1679.00000000000;1674.00000000000;1635.00000000000;1645.00000000000;1653.00000000000;1665.00000000000;1670.00000000000;1658.00000000000;1639.00000000000;1604.00000000000;1635.00000000000;1687.00000000000;1636.00000000000;1644.00000000000
Gyro X : 922.000000000000;918.000000000000;950.000000000000;963.000000000000;984.000000000000;997.000000000000;1007.00000000000;1032.00000000000;1033.00000000000;1025.00000000000;1028.00000000000;1001.00000000000;990.000000000000;985.000000000000;958.000000000000;985.000000000000;982.000000000000;993.000000000000;976.000000000000;973.000000000000;986.000000000000;989.000000000000;975.000000000000;952.000000000000;975.000000000000;986.000000000000;956.000000000000;972.000000000000;954.000000000000;964.000000000000;957.000000000000;934.000000000000;995.000000000000;975.000000000000;997.000000000000;976.000000000000;964.000000000000;981.000000000000;982.000000000000;976.000000000000;957.000000000000;963.000000000000;954.000000000000;963.000000000000;928.000000000000;711.000000000000;384.000000000000;611.000000000000;1002.00000000000;738.000000000000;970.000000000000;1816.00000000000;2377.00000000000;1937.00000000000;1729.00000000000;1693.00000000000;1772.00000000000;2098.00000000000;2131.00000000000;1947.00000000000;1953.00000000000;1968.00000000000;2022.00000000000;2000.00000000000;1980.00000000000;1924.00000000000;1945.00000000000;1939.00000000000;1877.00000000000;1837.00000000000;1870.00000000000;1917.00000000000;1904.00000000000;1863.00000000000;1869.00000000000;1867.00000000000;1968.00000000000;1997.00000000000;2017.00000000000;1950.00000000000;1950.00000000000;2119.00000000000;2134.00000000000;1960.00000000000;1478.00000000000;1139.00000000000;1136.00000000000;910.000000000000;611.000000000000;517.000000000000;715.000000000000;944.000000000000;1001.00000000000;916.000000000000;887.000000000000;870.000000000000;941.000000000000;972.000000000000;958.000000000000;935.000000000000;944.000000000000;943.000000000000;958.000000000000;982.000000000000;982.000000000000;971.000000000000;1008.00000000000;1018.00000000000;999.000000000000;949.000000000000;977.000000000000;955.000000000000;980.000000000000;988.000000000000;1008.00000000000;1014.00000000000;977.000000000000;967.000000000000;973.000000000000;980.000000000000;996.000000000000;988.000000000000;977.000000000000;985.000000000000;999.000000000000;984.000000000000;1016.00000000000;1001.00000000000;1004.00000000000;990.000000000000;1017.00000000000;1003.00000000000;997.000000000000;1006.00000000000;962.000000000000;981.000000000000;968.000000000000;987.000000000000;974.000000000000;994.000000000000;979.000000000000;969.000000000000;953.000000000000;989.000000000000;985.000000000000;962.000000000000;962.000000000000;975.000000000000;996.000000000000;962.000000000000
Gyro Y : 2216.00000000000;2220.00000000000;2207.00000000000;2201.00000000000;2191.00000000000;2191.00000000000;2171.00000000000;2184.00000000000;2160.00000000000;2189.00000000000;2154.00000000000;2181.00000000000;2172.00000000000;2181.00000000000;2179.00000000000;2177.00000000000;2158.00000000000;2150.00000000000;2175.00000000000;2180.00000000000;2154.00000000000;2161.00000000000;2187.00000000000;2181.00000000000;2167.00000000000;2160.00000000000;2168.00000000000;2159.00000000000;2192.00000000000;2176.00000000000;2169.00000000000;2177.00000000000;2167.00000000000;2168.00000000000;2154.00000000000;2137.00000000000;2171.00000000000;2178.00000000000;2141.00000000000;2152.00000000000;2150.00000000000;2147.00000000000;2159.00000000000;2129.00000000000;2148.00000000000;2175.00000000000;2147.00000000000;2198.00000000000;2133.00000000000;2124.00000000000;2091.00000000000;1996.00000000000;2108.00000000000;2129.00000000000;2208.00000000000;2226.00000000000;2291.00000000000;2331.00000000000;2327.00000000000;2330.00000000000;2417.00000000000;2409.00000000000;2403.00000000000;2421.00000000000;2395.00000000000;2434.00000000000;2414.00000000000;2392.00000000000;2431.00000000000;2410.00000000000;2406.00000000000;2392.00000000000;2376.00000000000;2367.00000000000;2363.00000000000;2357.00000000000;2311.00000000000;2363.00000000000;2344.00000000000;2368.00000000000;2287.00000000000;2276.00000000000;2376.00000000000;2402.00000000000;2371.00000000000;2309.00000000000;2282.00000000000;2201.00000000000;2214.00000000000;2193.00000000000;2176.00000000000;2087.00000000000;2077.00000000000;2101.00000000000;2089.00000000000;2146.00000000000;2163.00000000000;2134.00000000000;2171.00000000000;2163.00000000000;2135.00000000000;2161.00000000000;2167.00000000000;2151.00000000000;2169.00000000000;2199.00000000000;2177.00000000000;2163.00000000000;2167.00000000000;2172.00000000000;2186.00000000000;2185.00000000000;2167.00000000000;2183.00000000000;2171.00000000000;2176.00000000000;2187.00000000000;2166.00000000000;2189.00000000000;2191.00000000000;2164.00000000000;2169.00000000000;2170.00000000000;2163.00000000000;2166.00000000000;2164.00000000000;2187.00000000000;2179.00000000000;2165.00000000000;2149.00000000000;2141.00000000000;2146.00000000000;2165.00000000000;2189.00000000000;2177.00000000000;2178.00000000000;2178.00000000000;2149.00000000000;2168.00000000000;2187.00000000000;2172.00000000000;2187.00000000000;2195.00000000000;2186.00000000000;2190.00000000000;2165.00000000000;2188.00000000000;2181.00000000000;2162.00000000000;2155.00000000000
Gyro Z : 1660.00000000000;1664.00000000000;1696.00000000000;1676.00000000000;1667.00000000000;1683.00000000000;1691.00000000000;1701.00000000000;1703.00000000000;1690.00000000000;1715.00000000000;1697.00000000000;1708.00000000000;1704.00000000000;1698.00000000000;1713.00000000000;1716.00000000000;1687.00000000000;1711.00000000000;1685.00000000000;1689.00000000000;1689.00000000000;1696.00000000000;1670.00000000000;1672.00000000000;1673.00000000000;1694.00000000000;1674.00000000000;1669.00000000000;1673.00000000000;1674.00000000000;1686.00000000000;1689.00000000000;1662.00000000000;1668.00000000000;1704.00000000000;1691.00000000000;1673.00000000000;1672.00000000000;1685.00000000000;1687.00000000000;1698.00000000000;1686.00000000000;1686.00000000000;1678.00000000000;1589.00000000000;1585.00000000000;1687.00000000000;1843.00000000000;1769.00000000000;1685.00000000000;1894.00000000000;2473.00000000000;2559.00000000000;2551.00000000000;2551.00000000000;2618.00000000000;2670.00000000000;2671.00000000000;2732.00000000000;2785.00000000000;2759.00000000000;2734.00000000000;2693.00000000000;2709.00000000000;2733.00000000000;2750.00000000000;2726.00000000000;2694.00000000000;2683.00000000000;2675.00000000000;2699.00000000000;2675.00000000000;2682.00000000000;2670.00000000000;2675.00000000000;2665.00000000000;2666.00000000000;2605.00000000000;2632.00000000000;2610.00000000000;2642.00000000000;2672.00000000000;2446.00000000000;2141.00000000000;1842.00000000000;1704.00000000000;1715.00000000000;1666.00000000000;1775.00000000000;1779.00000000000;1730.00000000000;1679.00000000000;1615.00000000000;1597.00000000000;1627.00000000000;1651.00000000000;1640.00000000000;1659.00000000000;1631.00000000000;1650.00000000000;1631.00000000000;1608.00000000000;1654.00000000000;1642.00000000000;1651.00000000000;1648.00000000000;1679.00000000000;1626.00000000000;1670.00000000000;1649.00000000000;1643.00000000000;1648.00000000000;1640.00000000000;1638.00000000000;1681.00000000000;1623.00000000000;1663.00000000000;1683.00000000000;1643.00000000000;1646.00000000000;1623.00000000000;1643.00000000000;1670.00000000000;1659.00000000000;1657.00000000000;1656.00000000000;1668.00000000000;1662.00000000000;1663.00000000000;1682.00000000000;1660.00000000000;1636.00000000000;1657.00000000000;1671.00000000000;1702.00000000000;1679.00000000000;1674.00000000000;1635.00000000000;1645.00000000000;1653.00000000000;1665.00000000000;1670.00000000000;1658.00000000000;1639.00000000000;1604.00000000000;1635.00000000000;1687.00000000000;1636.00000000000;1644.00000000000
