COMMAND 2 SAMPLE 1
Accel X : 981.000000000000;1005.00000000000;987.000000000000;968.000000000000;972.000000000000;992.000000000000;1007.00000000000;975.000000000000;1001.00000000000;978.000000000000;976.000000000000;969.000000000000;983.000000000000;968.000000000000;977.000000000000;989.000000000000;976.000000000000;961.000000000000;973.000000000000;994.000000000000;993.000000000000;975.000000000000;977.000000000000;990.000000000000;972.000000000000;996.000000000000;979.000000000000;979.000000000000;961.000000000000;971.000000000000;983.000000000000;976.000000000000;971.000000000000;974.000000000000;987.000000000000;979.000000000000;1013.00000000000;950.000000000000;957.000000000000;987.000000000000;1027.00000000000;919.000000000000;842.000000000000;792.000000000000;867.000000000000;932.000000000000;984.000000000000;920.000000000000;852.000000000000;835.000000000000;939.000000000000;1012.00000000000;1044.00000000000;919.000000000000;850.000000000000;911.000000000000;990.000000000000;1049.00000000000;941.000000000000;1065.00000000000;1049.00000000000;1061.00000000000;1181.00000000000;1105.00000000000;1216.00000000000;1256.00000000000;1297.00000000000;1349.00000000000;1376.00000000000;1361.00000000000;1368.00000000000;1357.00000000000;1350.00000000000;1328.00000000000;1350.00000000000;1303.00000000000;1293.00000000000;1270.00000000000;1262.00000000000;1168.00000000000;1077.00000000000;1061.00000000000;1089.00000000000;1217.00000000000;1202.00000000000;1048.00000000000;947.000000000000;990.000000000000;1059.00000000000;904.000000000000;765.000000000000;783.000000000000;928.000000000000;963.000000000000;816.000000000000;826.000000000000;934.000000000000;1198.00000000000;1013.00000000000;813.000000000000;757.000000000000;839.000000000000;1071.00000000000;1142.00000000000;936.000000000000;803.000000000000;822.000000000000;887.000000000000;1024.00000000000;1096.00000000000;1006.00000000000;956.000000000000;972.000000000000;980.000000000000;1011.00000000000;1003.00000000000;1010.00000000000;987.000000000000;975.000000000000;963.000000000000;976.000000000000;993.000000000000;972.000000000000;963.000000000000;962.000000000000;975.000000000000;963.000000000000;981.000000000000;933.000000000000;968.000000000000;968.000000000000;977.000000000000;981.000000000000;1002.00000000000;1000.00000000000;998.000000000000;981.000000000000;968.000000000000;963.000000000000;972.000000000000;969.000000000000;982.000000000000;983.000000000000;980.000000000000;998.000000000000;998.000000000000;982.000000000000;989.000000000000;995.000000000000;966.000000000000
Accel Y : 2176.00000000000;2175.00000000000;2174.00000000000;2157.00000000000;2172.00000000000;2146.00000000000;2162.00000000000;2142.00000000000;2174.00000000000;2159.00000000000;2167.00000000000;2151.00000000000;2171.00000000000;2176.00000000000;2160.00000000000;2161.00000000000;2176.00000000000;2152.00000000000;2184.00000000000;2171.00000000000;2183.00000000000;2202.00000000000;2178.00000000000;2180.00000000000;2177.00000000000;2194.00000000000;2185.00000000000;2178.00000000000;2171.00000000000;2207.00000000000;2185.00000000000;2184.00000000000;2202.00000000000;2182.00000000000;2198.00000000000;2196.00000000000;2214.00000000000;2221.00000000000;2225.00000000000;2233.00000000000;2279.00000000000;2311.00000000000;2352.00000000000;2387.00000000000;2400.00000000000;2409.00000000000;2457.00000000000;2487.00000000000;2562.00000000000;2531.00000000000;2515.00000000000;2550.00000000000;2550.00000000000;2558.00000000000;2576.00000000000;2535.00000000000;2476.00000000000;2415.00000000000;2417.00000000000;2379.00000000000;2341.00000000000;2330.00000000000;2288.00000000000;2275.00000000000;2220.00000000000;2177.00000000000;2105.00000000000;2077.00000000000;2096.00000000000;2066.00000000000;2056.00000000000;2054.00000000000;2029.00000000000;2020.00000000000;2023.00000000000;2052.00000000000;2047.00000000000;2081.00000000000;2124.00000000000;2212.00000000000;2207.00000000000;2193.00000000000;2181.00000000000;2231.00000000000;2312.00000000000;2349.00000000000;2278.00000000000;2281.00000000000;2370.00000000000;2563.00000000000;2593.00000000000;2468.00000000000;2413.00000000000;2522.00000000000;2571.00000000000;2497.00000000000;2414.00000000000;2387.00000000000;2449.00000000000;2449.00000000000;2394.00000000000;2283.00000000000;2272.00000000000;2286.00000000000;2284.00000000000;2259.00000000000;2212.00000000000;2199.00000000000;2165.00000000000;2176.00000000000;2177.00000000000;2177.00000000000;2185.00000000000;2167.00000000000;2162.00000000000;2150.00000000000;2179.00000000000;2165.00000000000;2173.00000000000;2150.00000000000;2168.00000000000;2166.00000000000;2163.00000000000;2161.00000000000;2159.00000000000;2194.00000000000;2186.00000000000;2151.00000000000;2170.00000000000;2164.00000000000;2139.00000000000;2182.00000000000;2184.00000000000;2167.00000000000;2157.00000000000;2169.00000000000;2185.00000000000;2165.00000000000;2177.00000000000;2201.00000000000;2207.00000000000;2183.00000000000;2174.00000000000;2179.00000000000;2163.00000000000;2155.00000000000;2153.00000000000;2171.00000000000;2172.00000000000;2166.00000000000
Accel Z : 1814.00000000000;1815.00000000000;1803.00000000000;1805.00000000000;1816.00000000000;1796.00000000000;1804.00000000000;1805.00000000000;1792.00000000000;1789.00000000000;1809.00000000000;1794.00000000000;1816.00000000000;1781.00000000000;1831.00000000000;1820.00000000000;1818.00000000000;1802.00000000000;1810.00000000000;1780.00000000000;1792.00000000000;1789.00000000000;1789.00000000000;1796.00000000000;1826.00000000000;1806.00000000000;1817.00000000000;1797.00000000000;1825.00000000000;1828.00000000000;1823.00000000000;1835.00000000000;1856.00000000000;1849.00000000000;1875.00000000000;1877.00000000000;1906.00000000000;1940.00000000000;1947.00000000000;1993.00000000000;2057.00000000000;2059.00000000000;2110.00000000000;2122.00000000000;2076.00000000000;2091.00000000000;2154.00000000000;2125.00000000000;2080.00000000000;2016.00000000000;2012.00000000000;1937.00000000000;1839.00000000000;1717.00000000000;1651.00000000000;1560.00000000000;1489.00000000000;1403.00000000000;1319.00000000000;1262.00000000000;1214.00000000000;1166.00000000000;1123.00000000000;1041.00000000000;952.000000000000;873.000000000000;820.000000000000;777.000000000000;760.000000000000;766.000000000000;724.000000000000;769.000000000000;811.000000000000;864.000000000000;898.000000000000;903.000000000000;926.000000000000;912.000000000000;905.000000000000;1023.00000000000;1092.00000000000;1049.00000000000;1035.00000000000;1088.00000000000;1302.00000000000;1437.00000000000;1359.00000000000;1217.00000000000;1244.00000000000;1550.00000000000;1770.00000000000;1679.00000000000;1519.00000000000;1739.00000000000;2119.00000000000;2160.00000000000;1976.00000000000;1928.00000000000;2043.00000000000;2179.00000000000;2123.00000000000;1973.00000000000;1963.00000000000;1986.00000000000;2043.00000000000;1931.00000000000;1865.00000000000;1842.00000000000;1873.00000000000;1880.00000000000;1801.00000000000;1764.00000000000;1732.00000000000;1750.00000000000;1745.00000000000;1739.00000000000;1717.00000000000;1717.00000000000;1720.00000000000;1707.00000000000;1734.00000000000;1751.00000000000;1717.00000000000;1724.00000000000;1687.00000000000;1732.00000000000;1719.00000000000;1734.00000000000;1738.00000000000;1726.00000000000;1720.00000000000;1751.00000000000;1725.00000000000;1723.00000000000;1729.00000000000;1743.00000000000;1729.00000000000;1721.00000000000;1707.00000000000;1729.00000000000;1741.00000000000;1732.00000000000;1734.00000000000;1718.00000000000;1719.00000000000;1726.00000000000;1718.00000000000;1722.00000000000;1723.00000000000;1712.00000000000
Gyro X : 981.000000000000;1005.00000000000;987.000000000000;968.000000000000;972.000000000000;992.000000000000;1007.00000000000;975.000000000000;1001.00000000000;978.000000000000;976.000000000000;969.000000000000;983.000000000000;968.000000000000;977.000000000000;989.000000000000;976.000000000000;961.000000000000;973.000000000000;994.000000000000;993.000000000000;975.000000000000;977.000000000000;990.000000000000;972.000000000000;996.000000000000;979.000000000000;979.000000000000;961.000000000000;971.000000000000;983.000000000000;976.000000000000;971.000000000000;974.000000000000;987.000000000000;979.000000000000;1013.00000000000;950.000000000000;957.000000000000;987.000000000000;1027.00000000000;919.000000000000;842.000000000000;792.000000000000;867.000000000000;932.000000000000;984.000000000000;920.000000000000;852.000000000000;835.000000000000;939.000000000000;1012.00000000000;1044.00000000000;919.000000000000;850.000000000000;911.000000000000;990.000000000000;1049.00000000000;941.000000000000;1065.00000000000;1049.00000000000;1061.00000000000;1181.00000000000;1105.00000000000;1216.00000000000;1256.00000000000;1297.00000000000;1349.00000000000;1376.00000000000;1361.00000000000;1368.00000000000;1357.00000000000;1350.00000000000;1328.00000000000;1350.00000000000;1303.00000000000;1293.00000000000;1270.00000000000;1262.00000000000;1168.00000000000;1077.00000000000;1061.00000000000;1089.00000000000;1217.00000000000;1202.00000000000;1048.00000000000;947.000000000000;990.000000000000;1059.00000000000;904.000000000000;765.000000000000;783.000000000000;928.000000000000;963.000000000000;816.000000000000;826.000000000000;934.000000000000;1198.00000000000;1013.00000000000;813.000000000000;757.000000000000;839.000000000000;1071.00000000000;1142.00000000000;936.000000000000;803.000000000000;822.000000000000;887.000000000000;1024.00000000000;1096.00000000000;1006.00000000000;956.000000000000;972.000000000000;980.000000000000;1011.00000000000;1003.00000000000;1010.00000000000;987.000000000000;975.000000000000;963.000000000000;976.000000000000;993.000000000000;972.000000000000;963.000000000000;962.000000000000;975.000000000000;963.000000000000;981.000000000000;933.000000000000;968.000000000000;968.000000000000;977.000000000000;981.000000000000;1002.00000000000;1000.00000000000;998.000000000000;981.000000000000;968.000000000000;963.000000000000;972.000000000000;969.000000000000;982.000000000000;983.000000000000;980.000000000000;998.000000000000;998.000000000000;982.000000000000;989.000000000000;995.000000000000;966.000000000000
Gyro Y : 2176.00000000000;2175.00000000000;2174.00000000000;2157.00000000000;2172.00000000000;2146.00000000000;2162.00000000000;2142.00000000000;2174.00000000000;2159.00000000000;2167.00000000000;2151.00000000000;2171.00000000000;2176.00000000000;2160.00000000000;2161.00000000000;2176.00000000000;2152.00000000000;2184.00000000000;2171.00000000000;2183.00000000000;2202.00000000000;2178.00000000000;2180.00000000000;2177.00000000000;2194.00000000000;2185.00000000000;2178.00000000000;2171.00000000000;2207.00000000000;2185.00000000000;2184.00000000000;2202.00000000000;2182.00000000000;2198.00000000000;2196.00000000000;2214.00000000000;2221.00000000000;2225.00000000000;2233.00000000000;2279.00000000000;2311.00000000000;2352.00000000000;2387.00000000000;2400.00000000000;2409.00000000000;2457.00000000000;2487.00000000000;2562.00000000000;2531.00000000000;2515.00000000000;2550.00000000000;2550.00000000000;2558.00000000000;2576.00000000000;2535.00000000000;2476.00000000000;2415.00000000000;2417.00000000000;2379.00000000000;2341.00000000000;2330.00000000000;2288.00000000000;2275.00000000000;2220.00000000000;2177.00000000000;2105.00000000000;2077.00000000000;2096.00000000000;2066.00000000000;2056.00000000000;2054.00000000000;2029.00000000000;2020.00000000000;2023.00000000000;2052.00000000000;2047.00000000000;2081.00000000000;2124.00000000000;2212.00000000000;2207.00000000000;2193.00000000000;2181.00000000000;2231.00000000000;2312.00000000000;2349.00000000000;2278.00000000000;2281.00000000000;2370.00000000000;2563.00000000000;2593.00000000000;2468.00000000000;2413.00000000000;2522.00000000000;2571.00000000000;2497.00000000000;2414.00000000000;2387.00000000000;2449.00000000000;2449.00000000000;2394.00000000000;2283.00000000000;2272.00000000000;2286.00000000000;2284.00000000000;2259.00000000000;2212.00000000000;2199.00000000000;2165.00000000000;2176.00000000000;2177.00000000000;2177.00000000000;2185.00000000000;2167.00000000000;2162.00000000000;2150.00000000000;2179.00000000000;2165.00000000000;2173.00000000000;2150.00000000000;2168.00000000000;2166.00000000000;2163.00000000000;2161.00000000000;2159.00000000000;2194.00000000000;2186.00000000000;2151.00000000000;2170.00000000000;2164.00000000000;2139.00000000000;2182.00000000000;2184.00000000000;2167.00000000000;2157.00000000000;2169.00000000000;2185.00000000000;2165.00000000000;2177.00000000000;2201.00000000000;2207.00000000000;2183.00000000000;2174.00000000000;2179.00000000000;2163.00000000000;2155.00000000000;2153.00000000000;2171.00000000000;2172.00000000000;2166.00000000000
Gyro Z : 1814.00000000000;1815.00000000000;1803.00000000000;1805.00000000000;1816.00000000000;1796.00000000000;1804.00000000000;1805.00000000000;1792.00000000000;1789.00000000000;1809.00000000000;1794.00000000000;1816.00000000000;1781.00000000000;1831.00000000000;1820.00000000000;1818.00000000000;1802.00000000000;1810.00000000000;1780.00000000000;1792.00000000000;1789.00000000000;1789.00000000000;1796.00000000000;1826.00000000000;1806.00000000000;1817.00000000000;1797.00000000000;1825.00000000000;1828.00000000000;1823.00000000000;1835.00000000000;1856.00000000000;1849.00000000000;1875.00000000000;1877.00000000000;1906.00000000000;1940.00000000000;1947.00000000000;1993.00000000000;2057.00000000000;2059.00000000000;2110.00000000000;2122.00000000000;2076.00000000000;2091.00000000000;2154.00000000000;2125.00000000000;2080.00000000000;2016.00000000000;2012.00000000000;1937.00000000000;1839.00000000000;1717.00000000000;1651.00000000000;1560.00000000000;1489.00000000000;1403.00000000000;1319.00000000000;1262.00000000000;1214.00000000000;1166.00000000000;1123.00000000000;1041.00000000000;952.000000000000;873.000000000000;820.000000000000;777.000000000000;760.000000000000;766.000000000000;724.000000000000;769.000000000000;811.000000000000;864.000000000000;898.000000000000;903.000000000000;926.000000000000;912.000000000000;905.000000000000;1023.00000000000;1092.00000000000;1049.00000000000;1035.00000000000;1088.00000000000;1302.00000000000;1437.00000000000;1359.00000000000;1217.00000000000;1244.00000000000;1550.00000000000;1770.00000000000;1679.00000000000;1519.00000000000;1739.00000000000;2119.00000000000;2160.00000000000;1976.00000000000;1928.00000000000;2043.00000000000;2179.00000000000;2123.00000000000;1973.00000000000;1963.00000000000;1986.00000000000;2043.00000000000;1931.00000000000;1865.00000000000;1842.00000000000;1873.00000000000;1880.00000000000;1801.00000000000;1764.00000000000;1732.00000000000;1750.00000000000;1745.00000000000;1739.00000000000;1717.00000000000;1717.00000000000;1720.00000000000;1707.00000000000;1734.00000000000;1751.00000000000;1717.00000000000;1724.00000000000;1687.00000000000;1732.00000000000;1719.00000000000;1734.00000000000;1738.00000000000;1726.00000000000;1720.00000000000;1751.00000000000;1725.00000000000;1723.00000000000;1729.00000000000;1743.00000000000;1729.00000000000;1721.00000000000;1707.00000000000;1729.00000000000;1741.00000000000;1732.00000000000;1734.00000000000;1718.00000000000;1719.00000000000;1726.00000000000;1718.00000000000;1722.00000000000;1723.00000000000;1712.00000000000
