COMMAND 1 SAMPLE 1
Accel X : 996.000000000000;962.000000000000;993.000000000000;978.000000000000;985.000000000000;982.000000000000;996.000000000000;975.000000000000;974.000000000000;969.000000000000;980.000000000000;995.000000000000;961.000000000000;984.000000000000;975.000000000000;966.000000000000;990.000000000000;981.000000000000;1000.00000000000;983.000000000000;978.000000000000;946.000000000000;959.000000000000;973.000000000000;1008.00000000000;1060.00000000000;959.000000000000;862.000000000000;855.000000000000;956.000000000000;953.000000000000;1016.00000000000;997.000000000000;800.000000000000;770.000000000000;920.000000000000;1058.00000000000;939.000000000000;905.000000000000;723.000000000000;649.000000000000;822.000000000000;855.000000000000;944.000000000000;1041.00000000000;1076.00000000000;1167.00000000000;1111.00000000000;1217.00000000000;1286.00000000000;1375.00000000000;1513.00000000000;1586.00000000000;1620.00000000000;1707.00000000000;1717.00000000000;1779.00000000000;1852.00000000000;1945.00000000000;2135.00000000000;2339.00000000000;2380.00000000000;2369.00000000000;2338.00000000000;2191.00000000000;2056.00000000000;1954.00000000000;1914.00000000000;1900.00000000000;1829.00000000000;1817.00000000000;1930.00000000000;1904.00000000000;1858.00000000000;1888.00000000000;1928.00000000000;1945.00000000000;1914.00000000000;1907.00000000000;1931.00000000000;1950.00000000000;2023.00000000000;2017.00000000000;2014.00000000000;2014.00000000000;2003.00000000000;1974.00000000000;1947.00000000000;1883.00000000000;1887.00000000000;1873.00000000000;1789.00000000000;1764.00000000000;1731.00000000000;1620.00000000000;1300.00000000000;1085.00000000000;859.000000000000;862.000000000000;797.000000000000;337.000000000000;29.0000000000000;197.000000000000;496.000000000000;846.000000000000;758.000000000000;761.000000000000;697.000000000000;850.000000000000;857.000000000000;896.000000000000;903.000000000000;950.000000000000;974.000000000000;951.000000000000;927.000000000000;906.000000000000;943.000000000000;976.000000000000;991.000000000000;978.000000000000;976.000000000000;949.000000000000;939.000000000000;979.000000000000;1004.00000000000;1036.00000000000;999.000000000000;988.000000000000;1003.00000000000;1005.00000000000;1021.00000000000;1037.00000000000;1017.00000000000;982.000000000000;988.000000000000;963.000000000000;1005.00000000000;1005.00000000000;1001.00000000000;991.000000000000;993.000000000000;983.000000000000;973.000000000000;972.000000000000;978.000000000000;995.000000000000;986.000000000000;999.000000000000;960.000000000000
Accel Y : 2196.00000000000;2180.00000000000;2179.00000000000;2200.00000000000;2194.00000000000;2188.00000000000;2181.00000000000;2183.00000000000;2205.00000000000;2183.00000000000;2175.00000000000;2180.00000000000;2170.00000000000;2193.00000000000;2205.00000000000;2174.00000000000;2161.00000000000;2197.00000000000;2196.00000000000;2190.00000000000;2183.00000000000;2189.00000000000;2193.00000000000;2177.00000000000;2180.00000000000;2142.00000000000;2155.00000000000;2198.00000000000;2165.00000000000;2162.00000000000;2137.00000000000;2104.00000000000;2117.00000000000;2104.00000000000;2104.00000000000;2078.00000000000;2031.00000000000;1984.00000000000;1958.00000000000;1932.00000000000;1943.00000000000;1978.00000000000;1947.00000000000;1885.00000000000;1842.00000000000;1794.00000000000;1775.00000000000;1785.00000000000;1787.00000000000;1789.00000000000;1807.00000000000;1823.00000000000;1813.00000000000;1825.00000000000;1817.00000000000;1854.00000000000;1852.00000000000;1903.00000000000;1890.00000000000;1874.00000000000;1805.00000000000;1738.00000000000;1661.00000000000;1627.00000000000;1478.00000000000;1478.00000000000;1507.00000000000;1433.00000000000;1423.00000000000;1353.00000000000;1206.00000000000;1118.00000000000;1123.00000000000;1146.00000000000;1082.00000000000;1014.00000000000;1019.00000000000;1116.00000000000;1166.00000000000;1245.00000000000;1281.00000000000;1352.00000000000;1387.00000000000;1400.00000000000;1436.00000000000;1507.00000000000;1535.00000000000;1570.00000000000;1545.00000000000;1543.00000000000;1580.00000000000;1647.00000000000;1618.00000000000;1607.00000000000;1678.00000000000;1800.00000000000;1873.00000000000;2137.00000000000;2191.00000000000;2198.00000000000;2306.00000000000;2330.00000000000;2213.00000000000;2173.00000000000;2172.00000000000;2226.00000000000;2225.00000000000;2237.00000000000;2154.00000000000;2144.00000000000;2197.00000000000;2233.00000000000;2214.00000000000;2239.00000000000;2209.00000000000;2219.00000000000;2230.00000000000;2232.00000000000;2247.00000000000;2221.00000000000;2190.00000000000;2179.00000000000;2191.00000000000;2182.00000000000;2199.00000000000;2160.00000000000;2133.00000000000;2160.00000000000;2162.00000000000;2163.00000000000;2156.00000000000;2137.00000000000;2103.00000000000;2118.00000000000;2115.00000000000;2109.00000000000;2135.00000000000;2114.00000000000;2125.00000000000;2069.00000000000;2087.00000000000;2083.00000000000;2085.00000000000;2086.00000000000;2111.00000000000;2098.00000000000;2107.00000000000;2099.00000000000;2119.00000000000;2119.00000000000
Accel Z : 1744.00000000000;1764.00000000000;1763.00000000000;1734.00000000000;1751.00000000000;1761.00000000000;1767.00000000000;1754.00000000000;1753.00000000000;1747.00000000000;1767.00000000000;1753.00000000000;1732.00000000000;1748.00000000000;1731.00000000000;1721.00000000000;1739.00000000000;1747.00000000000;1716.00000000000;1729.00000000000;1706.00000000000;1698.00000000000;1696.00000000000;1694.00000000000;1643.00000000000;1670.00000000000;1630.00000000000;1594.00000000000;1596.00000000000;1573.00000000000;1576.00000000000;1556.00000000000;1499.00000000000;1440.00000000000;1392.00000000000;1455.00000000000;1418.00000000000;1245.00000000000;1218.00000000000;1119.00000000000;1041.00000000000;997.000000000000;919.000000000000;909.000000000000;791.000000000000;661.000000000000;628.000000000000;553.000000000000;610.000000000000;611.000000000000;574.000000000000;821.000000000000;968.000000000000;1098.00000000000;1378.00000000000;1649.00000000000;1963.00000000000;2430.00000000000;2664.00000000000;2601.00000000000;2431.00000000000;2228.00000000000;2188.00000000000;2086.00000000000;1931.00000000000;1922.00000000000;1926.00000000000;1973.00000000000;2036.00000000000;2050.00000000000;1891.00000000000;1901.00000000000;1884.00000000000;1872.00000000000;1828.00000000000;1775.00000000000;1804.00000000000;1860.00000000000;1895.00000000000;1942.00000000000;1924.00000000000;2015.00000000000;2084.00000000000;2070.00000000000;2066.00000000000;2005.00000000000;1964.00000000000;1868.00000000000;1754.00000000000;1678.00000000000;1595.00000000000;1469.00000000000;1507.00000000000;1565.00000000000;1571.00000000000;1254.00000000000;1234.00000000000;1408.00000000000;1590.00000000000;1627.00000000000;1538.00000000000;1523.00000000000;1634.00000000000;1687.00000000000;1896.00000000000;1903.00000000000;1968.00000000000;1932.00000000000;1965.00000000000;1975.00000000000;1983.00000000000;1980.00000000000;1970.00000000000;1959.00000000000;1948.00000000000;1926.00000000000;1923.00000000000;1932.00000000000;1953.00000000000;1892.00000000000;1911.00000000000;1858.00000000000;1862.00000000000;1864.00000000000;1846.00000000000;1846.00000000000;1823.00000000000;1809.00000000000;1837.00000000000;1844.00000000000;1850.00000000000;1836.00000000000;1819.00000000000;1813.00000000000;1828.00000000000;1805.00000000000;1831.00000000000;1836.00000000000;1809.00000000000;1809.00000000000;1824.00000000000;1794.00000000000;1788.00000000000;1810.00000000000;1796.00000000000;1814.00000000000;1823.00000000000;1806.00000000000;1820.00000000000;1793.00000000000
Gyro X : 996.000000000000;962.000000000000;993.000000000000;978.000000000000;985.000000000000;982.000000000000;996.000000000000;975.000000000000;974.000000000000;969.000000000000;980.000000000000;995.000000000000;961.000000000000;984.000000000000;975.000000000000;966.000000000000;990.000000000000;981.000000000000;1000.00000000000;983.000000000000;978.000000000000;946.000000000000;959.000000000000;973.000000000000;1008.00000000000;1060.00000000000;959.000000000000;862.000000000000;855.000000000000;956.000000000000;953.000000000000;1016.00000000000;997.000000000000;800.000000000000;770.000000000000;920.000000000000;1058.00000000000;939.000000000000;905.000000000000;723.000000000000;649.000000000000;822.000000000000;855.000000000000;944.000000000000;1041.00000000000;1076.00000000000;1167.00000000000;1111.00000000000;1217.00000000000;1286.00000000000;1375.00000000000;1513.00000000000;1586.00000000000;1620.00000000000;1707.00000000000;1717.00000000000;1779.00000000000;1852.00000000000;1945.00000000000;2135.00000000000;2339.00000000000;2380.00000000000;2369.00000000000;2338.00000000000;2191.00000000000;2056.00000000000;1954.00000000000;1914.00000000000;1900.00000000000;1829.00000000000;1817.00000000000;1930.00000000000;1904.00000000000;1858.00000000000;1888.00000000000;1928.00000000000;1945.00000000000;1914.00000000000;1907.00000000000;1931.00000000000;1950.00000000000;2023.00000000000;2017.00000000000;2014.00000000000;2014.00000000000;2003.00000000000;1974.00000000000;1947.00000000000;1883.00000000000;1887.00000000000;1873.00000000000;1789.00000000000;1764.00000000000;1731.00000000000;1620.00000000000;1300.00000000000;1085.00000000000;859.000000000000;862.000000000000;797.000000000000;337.000000000000;29.0000000000000;197.000000000000;496.000000000000;846.000000000000;758.000000000000;761.000000000000;697.000000000000;850.000000000000;857.000000000000;896.000000000000;903.000000000000;950.000000000000;974.000000000000;951.000000000000;927.000000000000;906.000000000000;943.000000000000;976.000000000000;991.000000000000;978.000000000000;976.000000000000;949.000000000000;939.000000000000;979.000000000000;1004.00000000000;1036.00000000000;999.000000000000;988.000000000000;1003.00000000000;1005.00000000000;1021.00000000000;1037.00000000000;1017.00000000000;982.000000000000;988.000000000000;963.000000000000;1005.00000000000;1005.00000000000;1001.00000000000;991.000000000000;993.000000000000;983.000000000000;973.000000000000;972.000000000000;978.000000000000;995.000000000000;986.000000000000;999.000000000000;960.000000000000
Gyro Y : 2196.00000000000;2180.00000000000;2179.00000000000;2200.00000000000;2194.00000000000;2188.00000000000;2181.00000000000;2183.00000000000;2205.00000000000;2183.00000000000;2175.00000000000;2180.00000000000;2170.00000000000;2193.00000000000;2205.00000000000;2174.00000000000;2161.00000000000;2197.00000000000;2196.00000000000;2190.00000000000;2183.00000000000;2189.00000000000;2193.00000000000;2177.00000000000;2180.00000000000;2142.00000000000;2155.00000000000;2198.00000000000;2165.00000000000;2162.00000000000;2137.00000000000;2104.00000000000;2117.00000000000;2104.00000000000;2104.00000000000;2078.00000000000;2031.00000000000;1984.00000000000;1958.00000000000;1932.00000000000;1943.00000000000;1978.00000000000;1947.00000000000;1885.00000000000;1842.00000000000;1794.00000000000;1775.00000000000;1785.00000000000;1787.00000000000;1789.00000000000;1807.00000000000;1823.00000000000;1813.00000000000;1825.00000000000;1817.00000000000;1854.00000000000;1852.00000000000;1903.00000000000;1890.00000000000;1874.00000000000;1805.00000000000;1738.00000000000;1661.00000000000;1627.00000000000;1478.00000000000;1478.00000000000;1507.00000000000;1433.00000000000;1423.00000000000;1353.00000000000;1206.00000000000;1118.00000000000;1123.00000000000;1146.00000000000;1082.00000000000;1014.00000000000;1019.00000000000;1116.00000000000;1166.00000000000;1245.00000000000;1281.00000000000;1352.00000000000;1387.00000000000;1400.00000000000;1436.00000000000;1507.00000000000;1535.00000000000;1570.00000000000;1545.00000000000;1543.00000000000;1580.00000000000;1647.00000000000;1618.00000000000;1607.00000000000;1678.00000000000;1800.00000000000;1873.00000000000;2137.00000000000;2191.00000000000;2198.00000000000;2306.00000000000;2330.00000000000;2213.00000000000;2173.00000000000;2172.00000000000;2226.00000000000;2225.00000000000;2237.00000000000;2154.00000000000;2144.00000000000;2197.00000000000;2233.00000000000;2214.00000000000;2239.00000000000;2209.00000000000;2219.00000000000;2230.00000000000;2232.00000000000;2247.00000000000;2221.00000000000;2190.00000000000;2179.00000000000;2191.00000000000;2182.00000000000;2199.00000000000;2160.00000000000;2133.00000000000;2160.00000000000;2162.00000000000;2163.00000000000;2156.00000000000;2137.00000000000;2103.00000000000;2118.00000000000;2115.00000000000;2109.00000000000;2135.00000000000;2114.00000000000;2125.00000000000;2069.00000000000;2087.00000000000;2083.00000000000;2085.00000000000;2086.00000000000;2111.00000000000;2098.00000000000;2107.00000000000;2099.00000000000;2119.00000000000;2119.00000000000
Gyro Z : 1744.00000000000;1764.00000000000;1763.00000000000;1734.00000000000;1751.00000000000;1761.00000000000;1767.00000000000;1754.00000000000;1753.00000000000;1747.00000000000;1767.00000000000;1753.00000000000;1732.00000000000;1748.00000000000;1731.00000000000;1721.00000000000;1739.00000000000;1747.00000000000;1716.00000000000;1729.00000000000;1706.00000000000;1698.00000000000;1696.00000000000;1694.00000000000;1643.00000000000;1670.00000000000;1630.00000000000;1594.00000000000;1596.00000000000;1573.00000000000;1576.00000000000;1556.00000000000;1499.00000000000;1440.00000000000;1392.00000000000;1455.00000000000;1418.00000000000;1245.00000000000;1218.00000000000;1119.00000000000;1041.00000000000;997.000000000000;919.000000000000;909.000000000000;791.000000000000;661.000000000000;628.000000000000;553.000000000000;610.000000000000;611.000000000000;574.000000000000;821.000000000000;968.000000000000;1098.00000000000;1378.00000000000;1649.00000000000;1963.00000000000;2430.00000000000;2664.00000000000;2601.00000000000;2431.00000000000;2228.00000000000;2188.00000000000;2086.00000000000;1931.00000000000;1922.00000000000;1926.00000000000;1973.00000000000;2036.00000000000;2050.00000000000;1891.00000000000;1901.00000000000;1884.00000000000;1872.00000000000;1828.00000000000;1775.00000000000;1804.00000000000;1860.00000000000;1895.00000000000;1942.00000000000;1924.00000000000;2015.00000000000;2084.00000000000;2070.00000000000;2066.00000000000;2005.00000000000;1964.00000000000;1868.00000000000;1754.00000000000;1678.00000000000;1595.00000000000;1469.00000000000;1507.00000000000;1565.00000000000;1571.00000000000;1254.00000000000;1234.00000000000;1408.00000000000;1590.00000000000;1627.00000000000;1538.00000000000;1523.00000000000;1634.00000000000;1687.00000000000;1896.00000000000;1903.00000000000;1968.00000000000;1932.00000000000;1965.00000000000;1975.00000000000;1983.00000000000;1980.00000000000;1970.00000000000;1959.00000000000;1948.00000000000;1926.00000000000;1923.00000000000;1932.00000000000;1953.00000000000;1892.00000000000;1911.00000000000;1858.00000000000;1862.00000000000;1864.00000000000;1846.00000000000;1846.00000000000;1823.00000000000;1809.00000000000;1837.00000000000;1844.00000000000;1850.00000000000;1836.00000000000;1819.00000000000;1813.00000000000;1828.00000000000;1805.00000000000;1831.00000000000;1836.00000000000;1809.00000000000;1809.00000000000;1824.00000000000;1794.00000000000;1788.00000000000;1810.00000000000;1796.00000000000;1814.00000000000;1823.00000000000;1806.00000000000;1820.00000000000;1793.00000000000
