COMMAND 6 SAMPLE 1
Accel X : 956.000000000000;962.000000000000;959.000000000000;980.000000000000;979.000000000000;980.000000000000;962.000000000000;980.000000000000;966.000000000000;988.000000000000;975.000000000000;993.000000000000;984.000000000000;978.000000000000;975.000000000000;986.000000000000;971.000000000000;966.000000000000;978.000000000000;970.000000000000;971.000000000000;958.000000000000;987.000000000000;956.000000000000;979.000000000000;972.000000000000;994.000000000000;963.000000000000;965.000000000000;967.000000000000;975.000000000000;988.000000000000;976.000000000000;986.000000000000;1002.00000000000;974.000000000000;973.000000000000;982.000000000000;972.000000000000;963.000000000000;955.000000000000;975.000000000000;958.000000000000;940.000000000000;957.000000000000;1020.00000000000;931.000000000000;500.000000000000;579.000000000000;953.000000000000;950.000000000000;1078.00000000000;1414.00000000000;1939.00000000000;1932.00000000000;1741.00000000000;1567.00000000000;1847.00000000000;2134.00000000000;2110.00000000000;2105.00000000000;2141.00000000000;2164.00000000000;2177.00000000000;2168.00000000000;2236.00000000000;2189.00000000000;2160.00000000000;2122.00000000000;2128.00000000000;2136.00000000000;2137.00000000000;2110.00000000000;2097.00000000000;2052.00000000000;2011.00000000000;2079.00000000000;2154.00000000000;2248.00000000000;2411.00000000000;2329.00000000000;2129.00000000000;1930.00000000000;1747.00000000000;1308.00000000000;880.000000000000;635.000000000000;580.000000000000;762.000000000000;895.000000000000;874.000000000000;995.000000000000;1027.00000000000;887.000000000000;824.000000000000;833.000000000000;932.000000000000;941.000000000000;931.000000000000;938.000000000000;959.000000000000;928.000000000000;975.000000000000;991.000000000000;982.000000000000;982.000000000000;981.000000000000;959.000000000000;993.000000000000;978.000000000000;1018.00000000000;1014.00000000000;969.000000000000;980.000000000000;980.000000000000;997.000000000000;975.000000000000;1016.00000000000;1008.00000000000;1000.00000000000;1015.00000000000;1032.00000000000;974.000000000000;1012.00000000000;993.000000000000;993.000000000000;972.000000000000;961.000000000000;992.000000000000;969.000000000000;972.000000000000;994.000000000000;968.000000000000;977.000000000000;982.000000000000;983.000000000000;985.000000000000;969.000000000000;1000.00000000000;1010.00000000000;972.000000000000;974.000000000000;977.000000000000;982.000000000000;996.000000000000;977.000000000000;980.000000000000;1002.00000000000;977.000000000000;974.000000000000
Accel Y : 2138.00000000000;2124.00000000000;2127.00000000000;2130.00000000000;2111.00000000000;2133.00000000000;2111.00000000000;2133.00000000000;2141.00000000000;2133.00000000000;2108.00000000000;2131.00000000000;2130.00000000000;2121.00000000000;2102.00000000000;2133.00000000000;2131.00000000000;2135.00000000000;2122.00000000000;2119.00000000000;2119.00000000000;2113.00000000000;2131.00000000000;2127.00000000000;2110.00000000000;2127.00000000000;2080.00000000000;2134.00000000000;2118.00000000000;2131.00000000000;2135.00000000000;2135.00000000000;2132.00000000000;2132.00000000000;2122.00000000000;2129.00000000000;2118.00000000000;2114.00000000000;2122.00000000000;2108.00000000000;2116.00000000000;2115.00000000000;2118.00000000000;2112.00000000000;2106.00000000000;2105.00000000000;2113.00000000000;2068.00000000000;2078.00000000000;2114.00000000000;2039.00000000000;1994.00000000000;1952.00000000000;2038.00000000000;2189.00000000000;2284.00000000000;2404.00000000000;2390.00000000000;2371.00000000000;2437.00000000000;2430.00000000000;2489.00000000000;2512.00000000000;2537.00000000000;2547.00000000000;2505.00000000000;2547.00000000000;2557.00000000000;2585.00000000000;2554.00000000000;2577.00000000000;2579.00000000000;2596.00000000000;2596.00000000000;2563.00000000000;2537.00000000000;2508.00000000000;2519.00000000000;2530.00000000000;2625.00000000000;2523.00000000000;2492.00000000000;2609.00000000000;2536.00000000000;2482.00000000000;2347.00000000000;2231.00000000000;2190.00000000000;2187.00000000000;2206.00000000000;2111.00000000000;2060.00000000000;2055.00000000000;2075.00000000000;2118.00000000000;2085.00000000000;2091.00000000000;2106.00000000000;2125.00000000000;2157.00000000000;2153.00000000000;2173.00000000000;2150.00000000000;2163.00000000000;2172.00000000000;2178.00000000000;2174.00000000000;2164.00000000000;2160.00000000000;2174.00000000000;2179.00000000000;2177.00000000000;2187.00000000000;2146.00000000000;2150.00000000000;2154.00000000000;2193.00000000000;2148.00000000000;2146.00000000000;2140.00000000000;2180.00000000000;2119.00000000000;2163.00000000000;2160.00000000000;2163.00000000000;2159.00000000000;2187.00000000000;2207.00000000000;2189.00000000000;2181.00000000000;2199.00000000000;2172.00000000000;2169.00000000000;2168.00000000000;2183.00000000000;2188.00000000000;2190.00000000000;2189.00000000000;2172.00000000000;2183.00000000000;2173.00000000000;2176.00000000000;2179.00000000000;2194.00000000000;2191.00000000000;2183.00000000000;2191.00000000000;2191.00000000000;2177.00000000000;2212.00000000000
Accel Z : 1747.00000000000;1701.00000000000;1752.00000000000;1718.00000000000;1704.00000000000;1746.00000000000;1719.00000000000;1736.00000000000;1756.00000000000;1708.00000000000;1723.00000000000;1701.00000000000;1725.00000000000;1726.00000000000;1730.00000000000;1716.00000000000;1717.00000000000;1704.00000000000;1719.00000000000;1730.00000000000;1705.00000000000;1707.00000000000;1711.00000000000;1731.00000000000;1726.00000000000;1731.00000000000;1724.00000000000;1717.00000000000;1718.00000000000;1730.00000000000;1742.00000000000;1742.00000000000;1736.00000000000;1723.00000000000;1730.00000000000;1769.00000000000;1752.00000000000;1752.00000000000;1730.00000000000;1767.00000000000;1772.00000000000;1750.00000000000;1768.00000000000;1749.00000000000;1749.00000000000;1768.00000000000;1672.00000000000;1591.00000000000;1703.00000000000;1834.00000000000;1775.00000000000;1753.00000000000;1988.00000000000;2309.00000000000;2497.00000000000;2558.00000000000;2644.00000000000;2626.00000000000;2578.00000000000;2614.00000000000;2599.00000000000;2646.00000000000;2662.00000000000;2742.00000000000;2723.00000000000;2662.00000000000;2688.00000000000;2695.00000000000;2719.00000000000;2694.00000000000;2643.00000000000;2662.00000000000;2664.00000000000;2680.00000000000;2683.00000000000;2614.00000000000;2634.00000000000;2648.00000000000;2671.00000000000;2631.00000000000;2536.00000000000;2452.00000000000;2461.00000000000;2231.00000000000;1859.00000000000;1602.00000000000;1635.00000000000;1889.00000000000;2085.00000000000;2051.00000000000;1911.00000000000;1813.00000000000;1813.00000000000;1854.00000000000;1850.00000000000;1823.00000000000;1816.00000000000;1820.00000000000;1779.00000000000;1771.00000000000;1766.00000000000;1741.00000000000;1714.00000000000;1730.00000000000;1771.00000000000;1768.00000000000;1746.00000000000;1750.00000000000;1767.00000000000;1787.00000000000;1790.00000000000;1777.00000000000;1787.00000000000;1775.00000000000;1819.00000000000;1804.00000000000;1828.00000000000;1815.00000000000;1803.00000000000;1803.00000000000;1794.00000000000;1796.00000000000;1824.00000000000;1830.00000000000;1804.00000000000;1808.00000000000;1829.00000000000;1862.00000000000;1853.00000000000;1844.00000000000;1867.00000000000;1841.00000000000;1836.00000000000;1845.00000000000;1858.00000000000;1818.00000000000;1833.00000000000;1803.00000000000;1841.00000000000;1847.00000000000;1848.00000000000;1870.00000000000;1837.00000000000;1846.00000000000;1838.00000000000;1832.00000000000;1850.00000000000;1809.00000000000;1837.00000000000;1803.00000000000
Gyro X : 956.000000000000;962.000000000000;959.000000000000;980.000000000000;979.000000000000;980.000000000000;962.000000000000;980.000000000000;966.000000000000;988.000000000000;975.000000000000;993.000000000000;984.000000000000;978.000000000000;975.000000000000;986.000000000000;971.000000000000;966.000000000000;978.000000000000;970.000000000000;971.000000000000;958.000000000000;987.000000000000;956.000000000000;979.000000000000;972.000000000000;994.000000000000;963.000000000000;965.000000000000;967.000000000000;975.000000000000;988.000000000000;976.000000000000;986.000000000000;1002.00000000000;974.000000000000;973.000000000000;982.000000000000;972.000000000000;963.000000000000;955.000000000000;975.000000000000;958.000000000000;940.000000000000;957.000000000000;1020.00000000000;931.000000000000;500.000000000000;579.000000000000;953.000000000000;950.000000000000;1078.00000000000;1414.00000000000;1939.00000000000;1932.00000000000;1741.00000000000;1567.00000000000;1847.00000000000;2134.00000000000;2110.00000000000;2105.00000000000;2141.00000000000;2164.00000000000;2177.00000000000;2168.00000000000;2236.00000000000;2189.00000000000;2160.00000000000;2122.00000000000;2128.00000000000;2136.00000000000;2137.00000000000;2110.00000000000;2097.00000000000;2052.00000000000;2011.00000000000;2079.00000000000;2154.00000000000;2248.00000000000;2411.00000000000;2329.00000000000;2129.00000000000;1930.00000000000;1747.00000000000;1308.00000000000;880.000000000000;635.000000000000;580.000000000000;762.000000000000;895.000000000000;874.000000000000;995.000000000000;1027.00000000000;887.000000000000;824.000000000000;833.000000000000;932.000000000000;941.000000000000;931.000000000000;938.000000000000;959.000000000000;928.000000000000;975.000000000000;991.000000000000;982.000000000000;982.000000000000;981.000000000000;959.000000000000;993.000000000000;978.000000000000;1018.00000000000;1014.00000000000;969.000000000000;980.000000000000;980.000000000000;997.000000000000;975.000000000000;1016.00000000000;1008.00000000000;1000.00000000000;1015.00000000000;1032.00000000000;974.000000000000;1012.00000000000;993.000000000000;993.000000000000;972.000000000000;961.000000000000;992.000000000000;969.000000000000;972.000000000000;994.000000000000;968.000000000000;977.000000000000;982.000000000000;983.000000000000;985.000000000000;969.000000000000;1000.00000000000;1010.00000000000;972.000000000000;974.000000000000;977.000000000000;982.000000000000;996.000000000000;977.000000000000;980.000000000000;1002.00000000000;977.000000000000;974.000000000000
Gyro Y : 2138.00000000000;2124.00000000000;2127.00000000000;2130.00000000000;2111.00000000000;2133.00000000000;2111.00000000000;2133.00000000000;2141.00000000000;2133.00000000000;2108.00000000000;2131.00000000000;2130.00000000000;2121.00000000000;2102.00000000000;2133.00000000000;2131.00000000000;2135.00000000000;2122.00000000000;2119.00000000000;2119.00000000000;2113.00000000000;2131.00000000000;2127.00000000000;2110.00000000000;2127.00000000000;2080.00000000000;2134.00000000000;2118.00000000000;2131.00000000000;2135.00000000000;2135.00000000000;2132.00000000000;2132.00000000000;2122.00000000000;2129.00000000000;2118.00000000000;2114.00000000000;2122.00000000000;2108.00000000000;2116.00000000000;2115.00000000000;2118.00000000000;2112.00000000000;2106.00000000000;2105.00000000000;2113.00000000000;2068.00000000000;2078.00000000000;2114.00000000000;2039.00000000000;1994.00000000000;1952.00000000000;2038.00000000000;2189.00000000000;2284.00000000000;2404.00000000000;2390.00000000000;2371.00000000000;2437.00000000000;2430.00000000000;2489.00000000000;2512.00000000000;2537.00000000000;2547.00000000000;2505.00000000000;2547.00000000000;2557.00000000000;2585.00000000000;2554.00000000000;2577.00000000000;2579.00000000000;2596.00000000000;2596.00000000000;2563.00000000000;2537.00000000000;2508.00000000000;2519.00000000000;2530.00000000000;2625.00000000000;2523.00000000000;2492.00000000000;2609.00000000000;2536.00000000000;2482.00000000000;2347.00000000000;2231.00000000000;2190.00000000000;2187.00000000000;2206.00000000000;2111.00000000000;2060.00000000000;2055.00000000000;2075.00000000000;2118.00000000000;2085.00000000000;2091.00000000000;2106.00000000000;2125.00000000000;2157.00000000000;2153.00000000000;2173.00000000000;2150.00000000000;2163.00000000000;2172.00000000000;2178.00000000000;2174.00000000000;2164.00000000000;2160.00000000000;2174.00000000000;2179.00000000000;2177.00000000000;2187.00000000000;2146.00000000000;2150.00000000000;2154.00000000000;2193.00000000000;2148.00000000000;2146.00000000000;2140.00000000000;2180.00000000000;2119.00000000000;2163.00000000000;2160.00000000000;2163.00000000000;2159.00000000000;2187.00000000000;2207.00000000000;2189.00000000000;2181.00000000000;2199.00000000000;2172.00000000000;2169.00000000000;2168.00000000000;2183.00000000000;2188.00000000000;2190.00000000000;2189.00000000000;2172.00000000000;2183.00000000000;2173.00000000000;2176.00000000000;2179.00000000000;2194.00000000000;2191.00000000000;2183.00000000000;2191.00000000000;2191.00000000000;2177.00000000000;2212.00000000000
Gyro Z : 1747.00000000000;1701.00000000000;1752.00000000000;1718.00000000000;1704.00000000000;1746.00000000000;1719.00000000000;1736.00000000000;1756.00000000000;1708.00000000000;1723.00000000000;1701.00000000000;1725.00000000000;1726.00000000000;1730.00000000000;1716.00000000000;1717.00000000000;1704.00000000000;1719.00000000000;1730.00000000000;1705.00000000000;1707.00000000000;1711.00000000000;1731.00000000000;1726.00000000000;1731.00000000000;1724.00000000000;1717.00000000000;1718.00000000000;1730.00000000000;1742.00000000000;1742.00000000000;1736.00000000000;1723.00000000000;1730.00000000000;1769.00000000000;1752.00000000000;1752.00000000000;1730.00000000000;1767.00000000000;1772.00000000000;1750.00000000000;1768.00000000000;1749.00000000000;1749.00000000000;1768.00000000000;1672.00000000000;1591.00000000000;1703.00000000000;1834.00000000000;1775.00000000000;1753.00000000000;1988.00000000000;2309.00000000000;2497.00000000000;2558.00000000000;2644.00000000000;2626.00000000000;2578.00000000000;2614.00000000000;2599.00000000000;2646.00000000000;2662.00000000000;2742.00000000000;2723.00000000000;2662.00000000000;2688.00000000000;2695.00000000000;2719.00000000000;2694.00000000000;2643.00000000000;2662.00000000000;2664.00000000000;2680.00000000000;2683.00000000000;2614.00000000000;2634.00000000000;2648.00000000000;2671.00000000000;2631.00000000000;2536.00000000000;2452.00000000000;2461.00000000000;2231.00000000000;1859.00000000000;1602.00000000000;1635.00000000000;1889.00000000000;2085.00000000000;2051.00000000000;1911.00000000000;1813.00000000000;1813.00000000000;1854.00000000000;1850.00000000000;1823.00000000000;1816.00000000000;1820.00000000000;1779.00000000000;1771.00000000000;1766.00000000000;1741.00000000000;1714.00000000000;1730.00000000000;1771.00000000000;1768.00000000000;1746.00000000000;1750.00000000000;1767.00000000000;1787.00000000000;1790.00000000000;1777.00000000000;1787.00000000000;1775.00000000000;1819.00000000000;1804.00000000000;1828.00000000000;1815.00000000000;1803.00000000000;1803.00000000000;1794.00000000000;1796.00000000000;1824.00000000000;1830.00000000000;1804.00000000000;1808.00000000000;1829.00000000000;1862.00000000000;1853.00000000000;1844.00000000000;1867.00000000000;1841.00000000000;1836.00000000000;1845.00000000000;1858.00000000000;1818.00000000000;1833.00000000000;1803.00000000000;1841.00000000000;1847.00000000000;1848.00000000000;1870.00000000000;1837.00000000000;1846.00000000000;1838.00000000000;1832.00000000000;1850.00000000000;1809.00000000000;1837.00000000000;1803.00000000000
