COMMAND 1 SAMPLE 1
Accel X : 987.000000000000;975.000000000000;964.000000000000;963.000000000000;988.000000000000;990.000000000000;984.000000000000;988.000000000000;979.000000000000;990.000000000000;979.000000000000;1000.00000000000;975.000000000000;959.000000000000;985.000000000000;961.000000000000;995.000000000000;989.000000000000;995.000000000000;1007.00000000000;1005.00000000000;954.000000000000;965.000000000000;969.000000000000;981.000000000000;967.000000000000;968.000000000000;991.000000000000;963.000000000000;971.000000000000;975.000000000000;991.000000000000;988.000000000000;955.000000000000;956.000000000000;916.000000000000;888.000000000000;817.000000000000;656.000000000000;588.000000000000;610.000000000000;651.000000000000;630.000000000000;561.000000000000;680.000000000000;694.000000000000;704.000000000000;927.000000000000;946.000000000000;1106.00000000000;1093.00000000000;1286.00000000000;1407.00000000000;1322.00000000000;1431.00000000000;1537.00000000000;1865.00000000000;2115.00000000000;1955.00000000000;2204.00000000000;2303.00000000000;2124.00000000000;1961.00000000000;1776.00000000000;1814.00000000000;1791.00000000000;1829.00000000000;1728.00000000000;1763.00000000000;1820.00000000000;1885.00000000000;1853.00000000000;1739.00000000000;1638.00000000000;1516.00000000000;1561.00000000000;1480.00000000000;1259.00000000000;1115.00000000000;905.000000000000;880.000000000000;878.000000000000;830.000000000000;769.000000000000;718.000000000000;689.000000000000;534.000000000000;493.000000000000;525.000000000000;596.000000000000;804.000000000000;897.000000000000;801.000000000000;864.000000000000;897.000000000000;888.000000000000;964.000000000000;1000.00000000000;932.000000000000;920.000000000000;983.000000000000;965.000000000000;1028.00000000000;1063.00000000000;989.000000000000;950.000000000000;975.000000000000;962.000000000000;984.000000000000;990.000000000000;974.000000000000;987.000000000000;971.000000000000;987.000000000000;1001.00000000000;983.000000000000;974.000000000000;992.000000000000;975.000000000000;1016.00000000000;997.000000000000;987.000000000000;978.000000000000;983.000000000000;1007.00000000000;991.000000000000;998.000000000000;1001.00000000000;1013.00000000000;1003.00000000000;995.000000000000;969.000000000000;978.000000000000;971.000000000000;969.000000000000;988.000000000000;977.000000000000;988.000000000000;960.000000000000;966.000000000000;975.000000000000;973.000000000000;982.000000000000;993.000000000000;990.000000000000;969.000000000000;953.000000000000;978.000000000000;976.000000000000;975.000000000000
Accel Y : 2200.00000000000;2225.00000000000;2203.00000000000;2213.00000000000;2206.00000000000;2223.00000000000;2224.00000000000;2206.00000000000;2200.00000000000;2207.00000000000;2218.00000000000;2199.00000000000;2208.00000000000;2199.00000000000;2206.00000000000;2198.00000000000;2197.00000000000;2208.00000000000;2211.00000000000;2209.00000000000;2207.00000000000;2200.00000000000;2195.00000000000;2204.00000000000;2201.00000000000;2196.00000000000;2173.00000000000;2171.00000000000;2183.00000000000;2200.00000000000;2169.00000000000;2170.00000000000;2136.00000000000;2135.00000000000;2143.00000000000;2121.00000000000;2075.00000000000;2070.00000000000;2088.00000000000;2133.00000000000;2110.00000000000;2073.00000000000;2050.00000000000;2035.00000000000;2021.00000000000;1986.00000000000;1966.00000000000;1906.00000000000;1825.00000000000;1823.00000000000;1828.00000000000;1800.00000000000;1758.00000000000;1735.00000000000;1789.00000000000;1816.00000000000;1824.00000000000;1707.00000000000;1577.00000000000;1553.00000000000;1628.00000000000;1612.00000000000;1614.00000000000;1578.00000000000;1605.00000000000;1666.00000000000;1729.00000000000;1752.00000000000;1676.00000000000;1622.00000000000;1629.00000000000;1711.00000000000;1796.00000000000;1724.00000000000;1604.00000000000;1565.00000000000;1628.00000000000;1687.00000000000;1711.00000000000;1798.00000000000;1934.00000000000;1986.00000000000;2054.00000000000;2218.00000000000;2190.00000000000;2300.00000000000;2318.00000000000;2302.00000000000;2249.00000000000;2175.00000000000;2134.00000000000;2148.00000000000;2154.00000000000;2224.00000000000;2187.00000000000;2207.00000000000;2215.00000000000;2266.00000000000;2293.00000000000;2287.00000000000;2280.00000000000;2256.00000000000;2256.00000000000;2271.00000000000;2309.00000000000;2303.00000000000;2272.00000000000;2250.00000000000;2261.00000000000;2274.00000000000;2287.00000000000;2274.00000000000;2274.00000000000;2254.00000000000;2268.00000000000;2269.00000000000;2267.00000000000;2241.00000000000;2276.00000000000;2265.00000000000;2236.00000000000;2265.00000000000;2243.00000000000;2249.00000000000;2254.00000000000;2226.00000000000;2239.00000000000;2239.00000000000;2215.00000000000;2243.00000000000;2258.00000000000;2252.00000000000;2254.00000000000;2233.00000000000;2225.00000000000;2238.00000000000;2242.00000000000;2252.00000000000;2231.00000000000;2259.00000000000;2254.00000000000;2250.00000000000;2248.00000000000;2257.00000000000;2249.00000000000;2245.00000000000;2245.00000000000;2246.00000000000;2250.00000000000;2230.00000000000
Accel Z : 1787.00000000000;1801.00000000000;1806.00000000000;1818.00000000000;1822.00000000000;1821.00000000000;1803.00000000000;1797.00000000000;1795.00000000000;1790.00000000000;1785.00000000000;1803.00000000000;1778.00000000000;1805.00000000000;1796.00000000000;1785.00000000000;1797.00000000000;1799.00000000000;1782.00000000000;1785.00000000000;1796.00000000000;1764.00000000000;1812.00000000000;1773.00000000000;1779.00000000000;1786.00000000000;1782.00000000000;1778.00000000000;1771.00000000000;1771.00000000000;1790.00000000000;1756.00000000000;1775.00000000000;1756.00000000000;1753.00000000000;1668.00000000000;1647.00000000000;1587.00000000000;1492.00000000000;1476.00000000000;1427.00000000000;1348.00000000000;1232.00000000000;1181.00000000000;1177.00000000000;1081.00000000000;1026.00000000000;1142.00000000000;1066.00000000000;1011.00000000000;927.000000000000;977.000000000000;1045.00000000000;1248.00000000000;1570.00000000000;1956.00000000000;2336.00000000000;2415.00000000000;2150.00000000000;2157.00000000000;2257.00000000000;2124.00000000000;2029.00000000000;1898.00000000000;1911.00000000000;1974.00000000000;2080.00000000000;2113.00000000000;2004.00000000000;1861.00000000000;1775.00000000000;1674.00000000000;1586.00000000000;1513.00000000000;1381.00000000000;1302.00000000000;1082.00000000000;805.000000000000;824.000000000000;818.000000000000;887.000000000000;915.000000000000;1021.00000000000;1328.00000000000;1370.00000000000;1476.00000000000;1523.00000000000;1602.00000000000;1612.00000000000;1595.00000000000;1646.00000000000;1723.00000000000;1655.00000000000;1680.00000000000;1671.00000000000;1642.00000000000;1697.00000000000;1733.00000000000;1689.00000000000;1691.00000000000;1669.00000000000;1657.00000000000;1678.00000000000;1706.00000000000;1694.00000000000;1697.00000000000;1674.00000000000;1697.00000000000;1705.00000000000;1717.00000000000;1719.00000000000;1733.00000000000;1715.00000000000;1702.00000000000;1720.00000000000;1736.00000000000;1706.00000000000;1727.00000000000;1739.00000000000;1740.00000000000;1724.00000000000;1737.00000000000;1733.00000000000;1724.00000000000;1752.00000000000;1728.00000000000;1751.00000000000;1695.00000000000;1706.00000000000;1734.00000000000;1717.00000000000;1746.00000000000;1721.00000000000;1703.00000000000;1716.00000000000;1726.00000000000;1707.00000000000;1715.00000000000;1716.00000000000;1721.00000000000;1717.00000000000;1725.00000000000;1719.00000000000;1754.00000000000;1730.00000000000;1737.00000000000;1742.00000000000;1732.00000000000;1710.00000000000;1711.00000000000
Gyro X : 987.000000000000;975.000000000000;964.000000000000;963.000000000000;988.000000000000;990.000000000000;984.000000000000;988.000000000000;979.000000000000;990.000000000000;979.000000000000;1000.00000000000;975.000000000000;959.000000000000;985.000000000000;961.000000000000;995.000000000000;989.000000000000;995.000000000000;1007.00000000000;1005.00000000000;954.000000000000;965.000000000000;969.000000000000;981.000000000000;967.000000000000;968.000000000000;991.000000000000;963.000000000000;971.000000000000;975.000000000000;991.000000000000;988.000000000000;955.000000000000;956.000000000000;916.000000000000;888.000000000000;817.000000000000;656.000000000000;588.000000000000;610.000000000000;651.000000000000;630.000000000000;561.000000000000;680.000000000000;694.000000000000;704.000000000000;927.000000000000;946.000000000000;1106.00000000000;1093.00000000000;1286.00000000000;1407.00000000000;1322.00000000000;1431.00000000000;1537.00000000000;1865.00000000000;2115.00000000000;1955.00000000000;2204.00000000000;2303.00000000000;2124.00000000000;1961.00000000000;1776.00000000000;1814.00000000000;1791.00000000000;1829.00000000000;1728.00000000000;1763.00000000000;1820.00000000000;1885.00000000000;1853.00000000000;1739.00000000000;1638.00000000000;1516.00000000000;1561.00000000000;1480.00000000000;1259.00000000000;1115.00000000000;905.000000000000;880.000000000000;878.000000000000;830.000000000000;769.000000000000;718.000000000000;689.000000000000;534.000000000000;493.000000000000;525.000000000000;596.000000000000;804.000000000000;897.000000000000;801.000000000000;864.000000000000;897.000000000000;888.000000000000;964.000000000000;1000.00000000000;932.000000000000;920.000000000000;983.000000000000;965.000000000000;1028.00000000000;1063.00000000000;989.000000000000;950.000000000000;975.000000000000;962.000000000000;984.000000000000;990.000000000000;974.000000000000;987.000000000000;971.000000000000;987.000000000000;1001.00000000000;983.000000000000;974.000000000000;992.000000000000;975.000000000000;1016.00000000000;997.000000000000;987.000000000000;978.000000000000;983.000000000000;1007.00000000000;991.000000000000;998.000000000000;1001.00000000000;1013.00000000000;1003.00000000000;995.000000000000;969.000000000000;978.000000000000;971.000000000000;969.000000000000;988.000000000000;977.000000000000;988.000000000000;960.000000000000;966.000000000000;975.000000000000;973.000000000000;982.000000000000;993.000000000000;990.000000000000;969.000000000000;953.000000000000;978.000000000000;976.000000000000;975.000000000000
Gyro Y : 2200.00000000000;2225.00000000000;2203.00000000000;2213.00000000000;2206.00000000000;2223.00000000000;2224.00000000000;2206.00000000000;2200.00000000000;2207.00000000000;2218.00000000000;2199.00000000000;2208.00000000000;2199.00000000000;2206.00000000000;2198.00000000000;2197.00000000000;2208.00000000000;2211.00000000000;2209.00000000000;2207.00000000000;2200.00000000000;2195.00000000000;2204.00000000000;2201.00000000000;2196.00000000000;2173.00000000000;2171.00000000000;2183.00000000000;2200.00000000000;2169.00000000000;2170.00000000000;2136.00000000000;2135.00000000000;2143.00000000000;2121.00000000000;2075.00000000000;2070.00000000000;2088.00000000000;2133.00000000000;2110.00000000000;2073.00000000000;2050.00000000000;2035.00000000000;2021.00000000000;1986.00000000000;1966.00000000000;1906.00000000000;1825.00000000000;1823.00000000000;1828.00000000000;1800.00000000000;1758.00000000000;1735.00000000000;1789.00000000000;1816.00000000000;1824.00000000000;1707.00000000000;1577.00000000000;1553.00000000000;1628.00000000000;1612.00000000000;1614.00000000000;1578.00000000000;1605.00000000000;1666.00000000000;1729.00000000000;1752.00000000000;1676.00000000000;1622.00000000000;1629.00000000000;1711.00000000000;1796.00000000000;1724.00000000000;1604.00000000000;1565.00000000000;1628.00000000000;1687.00000000000;1711.00000000000;1798.00000000000;1934.00000000000;1986.00000000000;2054.00000000000;2218.00000000000;2190.00000000000;2300.00000000000;2318.00000000000;2302.00000000000;2249.00000000000;2175.00000000000;2134.00000000000;2148.00000000000;2154.00000000000;2224.00000000000;2187.00000000000;2207.00000000000;2215.00000000000;2266.00000000000;2293.00000000000;2287.00000000000;2280.00000000000;2256.00000000000;2256.00000000000;2271.00000000000;2309.00000000000;2303.00000000000;2272.00000000000;2250.00000000000;2261.00000000000;2274.00000000000;2287.00000000000;2274.00000000000;2274.00000000000;2254.00000000000;2268.00000000000;2269.00000000000;2267.00000000000;2241.00000000000;2276.00000000000;2265.00000000000;2236.00000000000;2265.00000000000;2243.00000000000;2249.00000000000;2254.00000000000;2226.00000000000;2239.00000000000;2239.00000000000;2215.00000000000;2243.00000000000;2258.00000000000;2252.00000000000;2254.00000000000;2233.00000000000;2225.00000000000;2238.00000000000;2242.00000000000;2252.00000000000;2231.00000000000;2259.00000000000;2254.00000000000;2250.00000000000;2248.00000000000;2257.00000000000;2249.00000000000;2245.00000000000;2245.00000000000;2246.00000000000;2250.00000000000;2230.00000000000
Gyro Z : 1787.00000000000;1801.00000000000;1806.00000000000;1818.00000000000;1822.00000000000;1821.00000000000;1803.00000000000;1797.00000000000;1795.00000000000;1790.00000000000;1785.00000000000;1803.00000000000;1778.00000000000;1805.00000000000;1796.00000000000;1785.00000000000;1797.00000000000;1799.00000000000;1782.00000000000;1785.00000000000;1796.00000000000;1764.00000000000;1812.00000000000;1773.00000000000;1779.00000000000;1786.00000000000;1782.00000000000;1778.00000000000;1771.00000000000;1771.00000000000;1790.00000000000;1756.00000000000;1775.00000000000;1756.00000000000;1753.00000000000;1668.00000000000;1647.00000000000;1587.00000000000;1492.00000000000;1476.00000000000;1427.00000000000;1348.00000000000;1232.00000000000;1181.00000000000;1177.00000000000;1081.00000000000;1026.00000000000;1142.00000000000;1066.00000000000;1011.00000000000;927.000000000000;977.000000000000;1045.00000000000;1248.00000000000;1570.00000000000;1956.00000000000;2336.00000000000;2415.00000000000;2150.00000000000;2157.00000000000;2257.00000000000;2124.00000000000;2029.00000000000;1898.00000000000;1911.00000000000;1974.00000000000;2080.00000000000;2113.00000000000;2004.00000000000;1861.00000000000;1775.00000000000;1674.00000000000;1586.00000000000;1513.00000000000;1381.00000000000;1302.00000000000;1082.00000000000;805.000000000000;824.000000000000;818.000000000000;887.000000000000;915.000000000000;1021.00000000000;1328.00000000000;1370.00000000000;1476.00000000000;1523.00000000000;1602.00000000000;1612.00000000000;1595.00000000000;1646.00000000000;1723.00000000000;1655.00000000000;1680.00000000000;1671.00000000000;1642.00000000000;1697.00000000000;1733.00000000000;1689.00000000000;1691.00000000000;1669.00000000000;1657.00000000000;1678.00000000000;1706.00000000000;1694.00000000000;1697.00000000000;1674.00000000000;1697.00000000000;1705.00000000000;1717.00000000000;1719.00000000000;1733.00000000000;1715.00000000000;1702.00000000000;1720.00000000000;1736.00000000000;1706.00000000000;1727.00000000000;1739.00000000000;1740.00000000000;1724.00000000000;1737.00000000000;1733.00000000000;1724.00000000000;1752.00000000000;1728.00000000000;1751.00000000000;1695.00000000000;1706.00000000000;1734.00000000000;1717.00000000000;1746.00000000000;1721.00000000000;1703.00000000000;1716.00000000000;1726.00000000000;1707.00000000000;1715.00000000000;1716.00000000000;1721.00000000000;1717.00000000000;1725.00000000000;1719.00000000000;1754.00000000000;1730.00000000000;1737.00000000000;1742.00000000000;1732.00000000000;1710.00000000000;1711.00000000000
