COMMAND 2 SAMPLE 1
Accel X : 979.000000000000;973.000000000000;983.000000000000;990.000000000000;985.000000000000;992.000000000000;1002.00000000000;986.000000000000;975.000000000000;984.000000000000;988.000000000000;979.000000000000;972.000000000000;977.000000000000;972.000000000000;955.000000000000;982.000000000000;967.000000000000;981.000000000000;955.000000000000;974.000000000000;966.000000000000;979.000000000000;989.000000000000;966.000000000000;944.000000000000;973.000000000000;995.000000000000;995.000000000000;954.000000000000;943.000000000000;964.000000000000;984.000000000000;1006.00000000000;984.000000000000;961.000000000000;959.000000000000;986.000000000000;981.000000000000;993.000000000000;957.000000000000;919.000000000000;945.000000000000;959.000000000000;964.000000000000;991.000000000000;931.000000000000;853.000000000000;834.000000000000;909.000000000000;975.000000000000;871.000000000000;890.000000000000;862.000000000000;987.000000000000;956.000000000000;980.000000000000;977.000000000000;999.000000000000;1001.00000000000;1012.00000000000;1052.00000000000;1081.00000000000;1094.00000000000;1042.00000000000;1135.00000000000;1127.00000000000;1225.00000000000;1219.00000000000;1254.00000000000;1292.00000000000;1236.00000000000;1318.00000000000;1365.00000000000;1379.00000000000;1385.00000000000;1379.00000000000;1370.00000000000;1334.00000000000;1295.00000000000;1263.00000000000;1234.00000000000;1240.00000000000;1155.00000000000;1011.00000000000;1063.00000000000;1174.00000000000;1205.00000000000;1074.00000000000;945.000000000000;943.000000000000;1014.00000000000;872.000000000000;878.000000000000;944.000000000000;1004.00000000000;932.000000000000;863.000000000000;884.000000000000;1032.00000000000;1132.00000000000;986.000000000000;801.000000000000;742.000000000000;936.000000000000;1109.00000000000;1215.00000000000;1063.00000000000;934.000000000000;897.000000000000;961.000000000000;1054.00000000000;983.000000000000;977.000000000000;955.000000000000;936.000000000000;961.000000000000;966.000000000000;962.000000000000;963.000000000000;954.000000000000;923.000000000000;936.000000000000;977.000000000000;962.000000000000;964.000000000000;974.000000000000;949.000000000000;961.000000000000;970.000000000000;1018.00000000000;984.000000000000;991.000000000000;966.000000000000;990.000000000000;977.000000000000;993.000000000000;985.000000000000;992.000000000000;993.000000000000;981.000000000000;987.000000000000;996.000000000000;976.000000000000;1018.00000000000;967.000000000000;971.000000000000;969.000000000000;971.000000000000;980.000000000000
Accel Y : 2142.00000000000;2177.00000000000;2185.00000000000;2181.00000000000;2198.00000000000;2195.00000000000;2206.00000000000;2194.00000000000;2198.00000000000;2184.00000000000;2165.00000000000;2169.00000000000;2191.00000000000;2164.00000000000;2167.00000000000;2187.00000000000;2179.00000000000;2197.00000000000;2162.00000000000;2155.00000000000;2188.00000000000;2172.00000000000;2202.00000000000;2215.00000000000;2221.00000000000;2216.00000000000;2208.00000000000;2230.00000000000;2205.00000000000;2215.00000000000;2191.00000000000;2183.00000000000;2214.00000000000;2245.00000000000;2229.00000000000;2207.00000000000;2236.00000000000;2224.00000000000;2223.00000000000;2204.00000000000;2217.00000000000;2216.00000000000;2223.00000000000;2237.00000000000;2249.00000000000;2256.00000000000;2290.00000000000;2340.00000000000;2406.00000000000;2428.00000000000;2469.00000000000;2562.00000000000;2609.00000000000;2644.00000000000;2643.00000000000;2640.00000000000;2688.00000000000;2703.00000000000;2668.00000000000;2676.00000000000;2629.00000000000;2576.00000000000;2544.00000000000;2528.00000000000;2502.00000000000;2495.00000000000;2433.00000000000;2386.00000000000;2362.00000000000;2300.00000000000;2238.00000000000;2175.00000000000;2097.00000000000;2053.00000000000;1987.00000000000;1951.00000000000;1934.00000000000;1943.00000000000;2018.00000000000;2059.00000000000;2095.00000000000;2174.00000000000;2239.00000000000;2304.00000000000;2318.00000000000;2306.00000000000;2325.00000000000;2398.00000000000;2521.00000000000;2571.00000000000;2533.00000000000;2495.00000000000;2662.00000000000;2701.00000000000;2579.00000000000;2566.00000000000;2623.00000000000;2566.00000000000;2480.00000000000;2428.00000000000;2424.00000000000;2485.00000000000;2449.00000000000;2362.00000000000;2279.00000000000;2269.00000000000;2186.00000000000;2237.00000000000;2216.00000000000;2209.00000000000;2208.00000000000;2231.00000000000;2227.00000000000;2203.00000000000;2166.00000000000;2191.00000000000;2184.00000000000;2196.00000000000;2163.00000000000;2155.00000000000;2186.00000000000;2184.00000000000;2176.00000000000;2201.00000000000;2193.00000000000;2194.00000000000;2202.00000000000;2195.00000000000;2215.00000000000;2223.00000000000;2227.00000000000;2219.00000000000;2194.00000000000;2206.00000000000;2209.00000000000;2191.00000000000;2217.00000000000;2213.00000000000;2213.00000000000;2200.00000000000;2215.00000000000;2200.00000000000;2205.00000000000;2208.00000000000;2196.00000000000;2215.00000000000;2234.00000000000;2227.00000000000;2233.00000000000;2214.00000000000
Accel Z : 1786.00000000000;1777.00000000000;1769.00000000000;1777.00000000000;1784.00000000000;1782.00000000000;1804.00000000000;1797.00000000000;1807.00000000000;1798.00000000000;1777.00000000000;1779.00000000000;1784.00000000000;1782.00000000000;1763.00000000000;1784.00000000000;1802.00000000000;1784.00000000000;1782.00000000000;1775.00000000000;1768.00000000000;1759.00000000000;1763.00000000000;1770.00000000000;1762.00000000000;1768.00000000000;1766.00000000000;1772.00000000000;1794.00000000000;1792.00000000000;1804.00000000000;1790.00000000000;1792.00000000000;1830.00000000000;1843.00000000000;1832.00000000000;1841.00000000000;1854.00000000000;1836.00000000000;1860.00000000000;1911.00000000000;1955.00000000000;1958.00000000000;1971.00000000000;1987.00000000000;2047.00000000000;2138.00000000000;2195.00000000000;2235.00000000000;2187.00000000000;2208.00000000000;2255.00000000000;2282.00000000000;2199.00000000000;2107.00000000000;2072.00000000000;2001.00000000000;1924.00000000000;1747.00000000000;1658.00000000000;1533.00000000000;1381.00000000000;1368.00000000000;1292.00000000000;1226.00000000000;1154.00000000000;1011.00000000000;1014.00000000000;996.000000000000;895.000000000000;770.000000000000;720.000000000000;704.000000000000;671.000000000000;654.000000000000;628.000000000000;617.000000000000;631.000000000000;655.000000000000;723.000000000000;790.000000000000;785.000000000000;797.000000000000;888.000000000000;1052.00000000000;1075.00000000000;988.000000000000;964.000000000000;1163.00000000000;1415.00000000000;1421.00000000000;1355.00000000000;1682.00000000000;1905.00000000000;1929.00000000000;2019.00000000000;2177.00000000000;2220.00000000000;2138.00000000000;2064.00000000000;2066.00000000000;2135.00000000000;2102.00000000000;2027.00000000000;1997.00000000000;1972.00000000000;1996.00000000000;1926.00000000000;1892.00000000000;1837.00000000000;1820.00000000000;1827.00000000000;1777.00000000000;1761.00000000000;1734.00000000000;1716.00000000000;1743.00000000000;1724.00000000000;1720.00000000000;1697.00000000000;1706.00000000000;1693.00000000000;1679.00000000000;1720.00000000000;1688.00000000000;1705.00000000000;1690.00000000000;1696.00000000000;1694.00000000000;1701.00000000000;1724.00000000000;1702.00000000000;1717.00000000000;1702.00000000000;1699.00000000000;1718.00000000000;1725.00000000000;1714.00000000000;1714.00000000000;1700.00000000000;1719.00000000000;1725.00000000000;1710.00000000000;1715.00000000000;1691.00000000000;1703.00000000000;1658.00000000000;1700.00000000000;1711.00000000000;1730.00000000000
Gyro X : 979.000000000000;973.000000000000;983.000000000000;990.000000000000;985.000000000000;992.000000000000;1002.00000000000;986.000000000000;975.000000000000;984.000000000000;988.000000000000;979.000000000000;972.000000000000;977.000000000000;972.000000000000;955.000000000000;982.000000000000;967.000000000000;981.000000000000;955.000000000000;974.000000000000;966.000000000000;979.000000000000;989.000000000000;966.000000000000;944.000000000000;973.000000000000;995.000000000000;995.000000000000;954.000000000000;943.000000000000;964.000000000000;984.000000000000;1006.00000000000;984.000000000000;961.000000000000;959.000000000000;986.000000000000;981.000000000000;993.000000000000;957.000000000000;919.000000000000;945.000000000000;959.000000000000;964.000000000000;991.000000000000;931.000000000000;853.000000000000;834.000000000000;909.000000000000;975.000000000000;871.000000000000;890.000000000000;862.000000000000;987.000000000000;956.000000000000;980.000000000000;977.000000000000;999.000000000000;1001.00000000000;1012.00000000000;1052.00000000000;1081.00000000000;1094.00000000000;1042.00000000000;1135.00000000000;1127.00000000000;1225.00000000000;1219.00000000000;1254.00000000000;1292.00000000000;1236.00000000000;1318.00000000000;1365.00000000000;1379.00000000000;1385.00000000000;1379.00000000000;1370.00000000000;1334.00000000000;1295.00000000000;1263.00000000000;1234.00000000000;1240.00000000000;1155.00000000000;1011.00000000000;1063.00000000000;1174.00000000000;1205.00000000000;1074.00000000000;945.000000000000;943.000000000000;1014.00000000000;872.000000000000;878.000000000000;944.000000000000;1004.00000000000;932.000000000000;863.000000000000;884.000000000000;1032.00000000000;1132.00000000000;986.000000000000;801.000000000000;742.000000000000;936.000000000000;1109.00000000000;1215.00000000000;1063.00000000000;934.000000000000;897.000000000000;961.000000000000;1054.00000000000;983.000000000000;977.000000000000;955.000000000000;936.000000000000;961.000000000000;966.000000000000;962.000000000000;963.000000000000;954.000000000000;923.000000000000;936.000000000000;977.000000000000;962.000000000000;964.000000000000;974.000000000000;949.000000000000;961.000000000000;970.000000000000;1018.00000000000;984.000000000000;991.000000000000;966.000000000000;990.000000000000;977.000000000000;993.000000000000;985.000000000000;992.000000000000;993.000000000000;981.000000000000;987.000000000000;996.000000000000;976.000000000000;1018.00000000000;967.000000000000;971.000000000000;969.000000000000;971.000000000000;980.000000000000
Gyro Y : 2142.00000000000;2177.00000000000;2185.00000000000;2181.00000000000;2198.00000000000;2195.00000000000;2206.00000000000;2194.00000000000;2198.00000000000;2184.00000000000;2165.00000000000;2169.00000000000;2191.00000000000;2164.00000000000;2167.00000000000;2187.00000000000;2179.00000000000;2197.00000000000;2162.00000000000;2155.00000000000;2188.00000000000;2172.00000000000;2202.00000000000;2215.00000000000;2221.00000000000;2216.00000000000;2208.00000000000;2230.00000000000;2205.00000000000;2215.00000000000;2191.00000000000;2183.00000000000;2214.00000000000;2245.00000000000;2229.00000000000;2207.00000000000;2236.00000000000;2224.00000000000;2223.00000000000;2204.00000000000;2217.00000000000;2216.00000000000;2223.00000000000;2237.00000000000;2249.00000000000;2256.00000000000;2290.00000000000;2340.00000000000;2406.00000000000;2428.00000000000;2469.00000000000;2562.00000000000;2609.00000000000;2644.00000000000;2643.00000000000;2640.00000000000;2688.00000000000;2703.00000000000;2668.00000000000;2676.00000000000;2629.00000000000;2576.00000000000;2544.00000000000;2528.00000000000;2502.00000000000;2495.00000000000;2433.00000000000;2386.00000000000;2362.00000000000;2300.00000000000;2238.00000000000;2175.00000000000;2097.00000000000;2053.00000000000;1987.00000000000;1951.00000000000;1934.00000000000;1943.00000000000;2018.00000000000;2059.00000000000;2095.00000000000;2174.00000000000;2239.00000000000;2304.00000000000;2318.00000000000;2306.00000000000;2325.00000000000;2398.00000000000;2521.00000000000;2571.00000000000;2533.00000000000;2495.00000000000;2662.00000000000;2701.00000000000;2579.00000000000;2566.00000000000;2623.00000000000;2566.00000000000;2480.00000000000;2428.00000000000;2424.00000000000;2485.00000000000;2449.00000000000;2362.00000000000;2279.00000000000;2269.00000000000;2186.00000000000;2237.00000000000;2216.00000000000;2209.00000000000;2208.00000000000;2231.00000000000;2227.00000000000;2203.00000000000;2166.00000000000;2191.00000000000;2184.00000000000;2196.00000000000;2163.00000000000;2155.00000000000;2186.00000000000;2184.00000000000;2176.00000000000;2201.00000000000;2193.00000000000;2194.00000000000;2202.00000000000;2195.00000000000;2215.00000000000;2223.00000000000;2227.00000000000;2219.00000000000;2194.00000000000;2206.00000000000;2209.00000000000;2191.00000000000;2217.00000000000;2213.00000000000;2213.00000000000;2200.00000000000;2215.00000000000;2200.00000000000;2205.00000000000;2208.00000000000;2196.00000000000;2215.00000000000;2234.00000000000;2227.00000000000;2233.00000000000;2214.00000000000
Gyro Z : 1786.00000000000;1777.00000000000;1769.00000000000;1777.00000000000;1784.00000000000;1782.00000000000;1804.00000000000;1797.00000000000;1807.00000000000;1798.00000000000;1777.00000000000;1779.00000000000;1784.00000000000;1782.00000000000;1763.00000000000;1784.00000000000;1802.00000000000;1784.00000000000;1782.00000000000;1775.00000000000;1768.00000000000;1759.00000000000;1763.00000000000;1770.00000000000;1762.00000000000;1768.00000000000;1766.00000000000;1772.00000000000;1794.00000000000;1792.00000000000;1804.00000000000;1790.00000000000;1792.00000000000;1830.00000000000;1843.00000000000;1832.00000000000;1841.00000000000;1854.00000000000;1836.00000000000;1860.00000000000;1911.00000000000;1955.00000000000;1958.00000000000;1971.00000000000;1987.00000000000;2047.00000000000;2138.00000000000;2195.00000000000;2235.00000000000;2187.00000000000;2208.00000000000;2255.00000000000;2282.00000000000;2199.00000000000;2107.00000000000;2072.00000000000;2001.00000000000;1924.00000000000;1747.00000000000;1658.00000000000;1533.00000000000;1381.00000000000;1368.00000000000;1292.00000000000;1226.00000000000;1154.00000000000;1011.00000000000;1014.00000000000;996.000000000000;895.000000000000;770.000000000000;720.000000000000;704.000000000000;671.000000000000;654.000000000000;628.000000000000;617.000000000000;631.000000000000;655.000000000000;723.000000000000;790.000000000000;785.000000000000;797.000000000000;888.000000000000;1052.00000000000;1075.00000000000;988.000000000000;964.000000000000;1163.00000000000;1415.00000000000;1421.00000000000;1355.00000000000;1682.00000000000;1905.00000000000;1929.00000000000;2019.00000000000;2177.00000000000;2220.00000000000;2138.00000000000;2064.00000000000;2066.00000000000;2135.00000000000;2102.00000000000;2027.00000000000;1997.00000000000;1972.00000000000;1996.00000000000;1926.00000000000;1892.00000000000;1837.00000000000;1820.00000000000;1827.00000000000;1777.00000000000;1761.00000000000;1734.00000000000;1716.00000000000;1743.00000000000;1724.00000000000;1720.00000000000;1697.00000000000;1706.00000000000;1693.00000000000;1679.00000000000;1720.00000000000;1688.00000000000;1705.00000000000;1690.00000000000;1696.00000000000;1694.00000000000;1701.00000000000;1724.00000000000;1702.00000000000;1717.00000000000;1702.00000000000;1699.00000000000;1718.00000000000;1725.00000000000;1714.00000000000;1714.00000000000;1700.00000000000;1719.00000000000;1725.00000000000;1710.00000000000;1715.00000000000;1691.00000000000;1703.00000000000;1658.00000000000;1700.00000000000;1711.00000000000;1730.00000000000
