COMMAND 5 SAMPLE 1
Accel X : 1089.00000000000;1060.00000000000;1026.00000000000;1030.00000000000;1002.00000000000;1013.00000000000;1006.00000000000;1048.00000000000;1008.00000000000;1019.00000000000;997.000000000000;1011.00000000000;1032.00000000000;1040.00000000000;1043.00000000000;1033.00000000000;1054.00000000000;1040.00000000000;1036.00000000000;994.000000000000;958.000000000000;961.000000000000;971.000000000000;976.000000000000;989.000000000000;952.000000000000;983.000000000000;1004.00000000000;1041.00000000000;1035.00000000000;1056.00000000000;1057.00000000000;1051.00000000000;1066.00000000000;1034.00000000000;988.000000000000;993.000000000000;978.000000000000;994.000000000000;996.000000000000;963.000000000000;949.000000000000;928.000000000000;942.000000000000;931.000000000000;932.000000000000;956.000000000000;991.000000000000;1002.00000000000;1019.00000000000;1056.00000000000;1055.00000000000;979.000000000000;1033.00000000000;1038.00000000000;1069.00000000000;1044.00000000000;1047.00000000000;1046.00000000000;1049.00000000000;1036.00000000000;1059.00000000000;1050.00000000000;1028.00000000000;1021.00000000000;1035.00000000000;1032.00000000000;1028.00000000000;1014.00000000000;1022.00000000000;977.000000000000;976.000000000000;973.000000000000;998.000000000000;1035.00000000000;999.000000000000;1004.00000000000;1005.00000000000;1026.00000000000;1051.00000000000;1061.00000000000;1063.00000000000;1083.00000000000;1111.00000000000;1090.00000000000;1070.00000000000;1060.00000000000;1062.00000000000;1102.00000000000;1078.00000000000;1066.00000000000;1063.00000000000;1047.00000000000;1050.00000000000;1037.00000000000;1039.00000000000;1011.00000000000;991.000000000000;1011.00000000000;980.000000000000;1012.00000000000;1025.00000000000;1019.00000000000;1035.00000000000;1031.00000000000;1034.00000000000;1017.00000000000;1029.00000000000;1024.00000000000;1005.00000000000;1028.00000000000;1015.00000000000;1011.00000000000;1040.00000000000;1025.00000000000;1049.00000000000;1069.00000000000;1022.00000000000;1049.00000000000;1032.00000000000;1019.00000000000;1040.00000000000;1016.00000000000;1029.00000000000;1016.00000000000;1009.00000000000;1068.00000000000;1034.00000000000;1005.00000000000;1005.00000000000;1022.00000000000;1000.00000000000;1006.00000000000;1038.00000000000;1041.00000000000;1019.00000000000;1022.00000000000;1034.00000000000;1028.00000000000;1039.00000000000;1046.00000000000;1032.00000000000;1025.00000000000;1011.00000000000;1017.00000000000;1027.00000000000;1017.00000000000;1001.00000000000;1020.00000000000;1019.00000000000
Accel Y : 2052.00000000000;2067.00000000000;2049.00000000000;2068.00000000000;2075.00000000000;2055.00000000000;2053.00000000000;2047.00000000000;2092.00000000000;2059.00000000000;2085.00000000000;2054.00000000000;2067.00000000000;2032.00000000000;2048.00000000000;2056.00000000000;2037.00000000000;2055.00000000000;2025.00000000000;2062.00000000000;2050.00000000000;2093.00000000000;2060.00000000000;2095.00000000000;2070.00000000000;2079.00000000000;2089.00000000000;2097.00000000000;2086.00000000000;2093.00000000000;2079.00000000000;2070.00000000000;2078.00000000000;2095.00000000000;2097.00000000000;2127.00000000000;2106.00000000000;2104.00000000000;2080.00000000000;2108.00000000000;2119.00000000000;2127.00000000000;2105.00000000000;2109.00000000000;2085.00000000000;2063.00000000000;2077.00000000000;2113.00000000000;2068.00000000000;2106.00000000000;2101.00000000000;2101.00000000000;2107.00000000000;2083.00000000000;2059.00000000000;2049.00000000000;2032.00000000000;2004.00000000000;1994.00000000000;1976.00000000000;1916.00000000000;1902.00000000000;1799.00000000000;1801.00000000000;1891.00000000000;2038.00000000000;2076.00000000000;2118.00000000000;2052.00000000000;2009.00000000000;1995.00000000000;1951.00000000000;1967.00000000000;1977.00000000000;2012.00000000000;2027.00000000000;2003.00000000000;1974.00000000000;1973.00000000000;1961.00000000000;1965.00000000000;1950.00000000000;1938.00000000000;1948.00000000000;1948.00000000000;1957.00000000000;1966.00000000000;1953.00000000000;1957.00000000000;1994.00000000000;1963.00000000000;1971.00000000000;1971.00000000000;1970.00000000000;1981.00000000000;1992.00000000000;1970.00000000000;1991.00000000000;1988.00000000000;1969.00000000000;1993.00000000000;1978.00000000000;1999.00000000000;1992.00000000000;1974.00000000000;1983.00000000000;1950.00000000000;1989.00000000000;2001.00000000000;2001.00000000000;1989.00000000000;1983.00000000000;1997.00000000000;1983.00000000000;1994.00000000000;1958.00000000000;1989.00000000000;1989.00000000000;1996.00000000000;1990.00000000000;1997.00000000000;1973.00000000000;1993.00000000000;2006.00000000000;1999.00000000000;1986.00000000000;1978.00000000000;1989.00000000000;1983.00000000000;1994.00000000000;1998.00000000000;1987.00000000000;2004.00000000000;1985.00000000000;1992.00000000000;1996.00000000000;1999.00000000000;2007.00000000000;2006.00000000000;2000.00000000000;1994.00000000000;2001.00000000000;2000.00000000000;1995.00000000000;2006.00000000000;2001.00000000000;2019.00000000000;2004.00000000000;2007.00000000000;2012.00000000000
Accel Z : 1915.00000000000;1885.00000000000;1911.00000000000;1920.00000000000;1917.00000000000;1906.00000000000;1904.00000000000;1925.00000000000;1929.00000000000;1922.00000000000;1948.00000000000;1953.00000000000;1945.00000000000;1923.00000000000;1934.00000000000;1938.00000000000;1937.00000000000;1946.00000000000;1930.00000000000;1940.00000000000;1930.00000000000;1942.00000000000;1943.00000000000;1925.00000000000;1915.00000000000;1934.00000000000;1951.00000000000;1938.00000000000;1935.00000000000;1908.00000000000;1957.00000000000;1948.00000000000;1972.00000000000;1959.00000000000;1971.00000000000;1942.00000000000;1983.00000000000;1950.00000000000;1979.00000000000;1984.00000000000;1970.00000000000;1984.00000000000;1964.00000000000;1975.00000000000;1989.00000000000;1959.00000000000;1977.00000000000;1987.00000000000;1951.00000000000;1961.00000000000;1942.00000000000;1971.00000000000;1947.00000000000;1954.00000000000;1952.00000000000;1918.00000000000;1960.00000000000;1936.00000000000;1937.00000000000;1983.00000000000;1979.00000000000;1999.00000000000;2016.00000000000;2022.00000000000;2016.00000000000;1938.00000000000;1942.00000000000;1929.00000000000;1928.00000000000;1951.00000000000;1931.00000000000;1978.00000000000;1979.00000000000;1966.00000000000;1959.00000000000;1956.00000000000;1941.00000000000;1973.00000000000;1965.00000000000;1986.00000000000;1961.00000000000;1974.00000000000;1960.00000000000;1927.00000000000;1934.00000000000;1950.00000000000;1969.00000000000;1968.00000000000;1969.00000000000;1958.00000000000;1950.00000000000;1975.00000000000;1980.00000000000;1966.00000000000;1970.00000000000;1973.00000000000;1948.00000000000;1966.00000000000;1975.00000000000;1989.00000000000;1975.00000000000;1963.00000000000;1977.00000000000;1981.00000000000;1967.00000000000;1982.00000000000;1953.00000000000;1977.00000000000;1980.00000000000;1975.00000000000;1974.00000000000;1953.00000000000;1988.00000000000;1953.00000000000;1991.00000000000;1988.00000000000;1982.00000000000;1988.00000000000;1942.00000000000;1982.00000000000;1952.00000000000;1943.00000000000;1944.00000000000;1949.00000000000;1957.00000000000;1977.00000000000;1963.00000000000;1965.00000000000;1980.00000000000;1982.00000000000;1971.00000000000;1974.00000000000;1968.00000000000;1980.00000000000;1967.00000000000;1966.00000000000;1977.00000000000;1954.00000000000;1970.00000000000;1976.00000000000;1964.00000000000;1974.00000000000;1955.00000000000;1961.00000000000;1967.00000000000;1944.00000000000;1973.00000000000;1969.00000000000;1974.00000000000;1989.00000000000
Gyro X : 1089.00000000000;1060.00000000000;1026.00000000000;1030.00000000000;1002.00000000000;1013.00000000000;1006.00000000000;1048.00000000000;1008.00000000000;1019.00000000000;997.000000000000;1011.00000000000;1032.00000000000;1040.00000000000;1043.00000000000;1033.00000000000;1054.00000000000;1040.00000000000;1036.00000000000;994.000000000000;958.000000000000;961.000000000000;971.000000000000;976.000000000000;989.000000000000;952.000000000000;983.000000000000;1004.00000000000;1041.00000000000;1035.00000000000;1056.00000000000;1057.00000000000;1051.00000000000;1066.00000000000;1034.00000000000;988.000000000000;993.000000000000;978.000000000000;994.000000000000;996.000000000000;963.000000000000;949.000000000000;928.000000000000;942.000000000000;931.000000000000;932.000000000000;956.000000000000;991.000000000000;1002.00000000000;1019.00000000000;1056.00000000000;1055.00000000000;979.000000000000;1033.00000000000;1038.00000000000;1069.00000000000;1044.00000000000;1047.00000000000;1046.00000000000;1049.00000000000;1036.00000000000;1059.00000000000;1050.00000000000;1028.00000000000;1021.00000000000;1035.00000000000;1032.00000000000;1028.00000000000;1014.00000000000;1022.00000000000;977.000000000000;976.000000000000;973.000000000000;998.000000000000;1035.00000000000;999.000000000000;1004.00000000000;1005.00000000000;1026.00000000000;1051.00000000000;1061.00000000000;1063.00000000000;1083.00000000000;1111.00000000000;1090.00000000000;1070.00000000000;1060.00000000000;1062.00000000000;1102.00000000000;1078.00000000000;1066.00000000000;1063.00000000000;1047.00000000000;1050.00000000000;1037.00000000000;1039.00000000000;1011.00000000000;991.000000000000;1011.00000000000;980.000000000000;1012.00000000000;1025.00000000000;1019.00000000000;1035.00000000000;1031.00000000000;1034.00000000000;1017.00000000000;1029.00000000000;1024.00000000000;1005.00000000000;1028.00000000000;1015.00000000000;1011.00000000000;1040.00000000000;1025.00000000000;1049.00000000000;1069.00000000000;1022.00000000000;1049.00000000000;1032.00000000000;1019.00000000000;1040.00000000000;1016.00000000000;1029.00000000000;1016.00000000000;1009.00000000000;1068.00000000000;1034.00000000000;1005.00000000000;1005.00000000000;1022.00000000000;1000.00000000000;1006.00000000000;1038.00000000000;1041.00000000000;1019.00000000000;1022.00000000000;1034.00000000000;1028.00000000000;1039.00000000000;1046.00000000000;1032.00000000000;1025.00000000000;1011.00000000000;1017.00000000000;1027.00000000000;1017.00000000000;1001.00000000000;1020.00000000000;1019.00000000000
Gyro Y : 2052.00000000000;2067.00000000000;2049.00000000000;2068.00000000000;2075.00000000000;2055.00000000000;2053.00000000000;2047.00000000000;2092.00000000000;2059.00000000000;2085.00000000000;2054.00000000000;2067.00000000000;2032.00000000000;2048.00000000000;2056.00000000000;2037.00000000000;2055.00000000000;2025.00000000000;2062.00000000000;2050.00000000000;2093.00000000000;2060.00000000000;2095.00000000000;2070.00000000000;2079.00000000000;2089.00000000000;2097.00000000000;2086.00000000000;2093.00000000000;2079.00000000000;2070.00000000000;2078.00000000000;2095.00000000000;2097.00000000000;2127.00000000000;2106.00000000000;2104.00000000000;2080.00000000000;2108.00000000000;2119.00000000000;2127.00000000000;2105.00000000000;2109.00000000000;2085.00000000000;2063.00000000000;2077.00000000000;2113.00000000000;2068.00000000000;2106.00000000000;2101.00000000000;2101.00000000000;2107.00000000000;2083.00000000000;2059.00000000000;2049.00000000000;2032.00000000000;2004.00000000000;1994.00000000000;1976.00000000000;1916.00000000000;1902.00000000000;1799.00000000000;1801.00000000000;1891.00000000000;2038.00000000000;2076.00000000000;2118.00000000000;2052.00000000000;2009.00000000000;1995.00000000000;1951.00000000000;1967.00000000000;1977.00000000000;2012.00000000000;2027.00000000000;2003.00000000000;1974.00000000000;1973.00000000000;1961.00000000000;1965.00000000000;1950.00000000000;1938.00000000000;1948.00000000000;1948.00000000000;1957.00000000000;1966.00000000000;1953.00000000000;1957.00000000000;1994.00000000000;1963.00000000000;1971.00000000000;1971.00000000000;1970.00000000000;1981.00000000000;1992.00000000000;1970.00000000000;1991.00000000000;1988.00000000000;1969.00000000000;1993.00000000000;1978.00000000000;1999.00000000000;1992.00000000000;1974.00000000000;1983.00000000000;1950.00000000000;1989.00000000000;2001.00000000000;2001.00000000000;1989.00000000000;1983.00000000000;1997.00000000000;1983.00000000000;1994.00000000000;1958.00000000000;1989.00000000000;1989.00000000000;1996.00000000000;1990.00000000000;1997.00000000000;1973.00000000000;1993.00000000000;2006.00000000000;1999.00000000000;1986.00000000000;1978.00000000000;1989.00000000000;1983.00000000000;1994.00000000000;1998.00000000000;1987.00000000000;2004.00000000000;1985.00000000000;1992.00000000000;1996.00000000000;1999.00000000000;2007.00000000000;2006.00000000000;2000.00000000000;1994.00000000000;2001.00000000000;2000.00000000000;1995.00000000000;2006.00000000000;2001.00000000000;2019.00000000000;2004.00000000000;2007.00000000000;2012.00000000000
Gyro Z : 1915.00000000000;1885.00000000000;1911.00000000000;1920.00000000000;1917.00000000000;1906.00000000000;1904.00000000000;1925.00000000000;1929.00000000000;1922.00000000000;1948.00000000000;1953.00000000000;1945.00000000000;1923.00000000000;1934.00000000000;1938.00000000000;1937.00000000000;1946.00000000000;1930.00000000000;1940.00000000000;1930.00000000000;1942.00000000000;1943.00000000000;1925.00000000000;1915.00000000000;1934.00000000000;1951.00000000000;1938.00000000000;1935.00000000000;1908.00000000000;1957.00000000000;1948.00000000000;1972.00000000000;1959.00000000000;1971.00000000000;1942.00000000000;1983.00000000000;1950.00000000000;1979.00000000000;1984.00000000000;1970.00000000000;1984.00000000000;1964.00000000000;1975.00000000000;1989.00000000000;1959.00000000000;1977.00000000000;1987.00000000000;1951.00000000000;1961.00000000000;1942.00000000000;1971.00000000000;1947.00000000000;1954.00000000000;1952.00000000000;1918.00000000000;1960.00000000000;1936.00000000000;1937.00000000000;1983.00000000000;1979.00000000000;1999.00000000000;2016.00000000000;2022.00000000000;2016.00000000000;1938.00000000000;1942.00000000000;1929.00000000000;1928.00000000000;1951.00000000000;1931.00000000000;1978.00000000000;1979.00000000000;1966.00000000000;1959.00000000000;1956.00000000000;1941.00000000000;1973.00000000000;1965.00000000000;1986.00000000000;1961.00000000000;1974.00000000000;1960.00000000000;1927.00000000000;1934.00000000000;1950.00000000000;1969.00000000000;1968.00000000000;1969.00000000000;1958.00000000000;1950.00000000000;1975.00000000000;1980.00000000000;1966.00000000000;1970.00000000000;1973.00000000000;1948.00000000000;1966.00000000000;1975.00000000000;1989.00000000000;1975.00000000000;1963.00000000000;1977.00000000000;1981.00000000000;1967.00000000000;1982.00000000000;1953.00000000000;1977.00000000000;1980.00000000000;1975.00000000000;1974.00000000000;1953.00000000000;1988.00000000000;1953.00000000000;1991.00000000000;1988.00000000000;1982.00000000000;1988.00000000000;1942.00000000000;1982.00000000000;1952.00000000000;1943.00000000000;1944.00000000000;1949.00000000000;1957.00000000000;1977.00000000000;1963.00000000000;1965.00000000000;1980.00000000000;1982.00000000000;1971.00000000000;1974.00000000000;1968.00000000000;1980.00000000000;1967.00000000000;1966.00000000000;1977.00000000000;1954.00000000000;1970.00000000000;1976.00000000000;1964.00000000000;1974.00000000000;1955.00000000000;1961.00000000000;1967.00000000000;1944.00000000000;1973.00000000000;1969.00000000000;1974.00000000000;1989.00000000000
