COMMAND 2 SAMPLE 1
Accel X : 977.000000000000;973.000000000000;975.000000000000;972.000000000000;969.000000000000;977.000000000000;986.000000000000;972.000000000000;968.000000000000;957.000000000000;983.000000000000;986.000000000000;978.000000000000;986.000000000000;967.000000000000;973.000000000000;999.000000000000;971.000000000000;988.000000000000;972.000000000000;965.000000000000;981.000000000000;971.000000000000;985.000000000000;976.000000000000;1015.00000000000;978.000000000000;983.000000000000;981.000000000000;973.000000000000;970.000000000000;975.000000000000;971.000000000000;975.000000000000;960.000000000000;981.000000000000;987.000000000000;966.000000000000;988.000000000000;948.000000000000;952.000000000000;955.000000000000;984.000000000000;997.000000000000;941.000000000000;893.000000000000;849.000000000000;899.000000000000;941.000000000000;989.000000000000;884.000000000000;840.000000000000;866.000000000000;863.000000000000;815.000000000000;920.000000000000;810.000000000000;883.000000000000;890.000000000000;892.000000000000;958.000000000000;971.000000000000;1025.00000000000;1002.00000000000;1108.00000000000;1201.00000000000;1224.00000000000;1247.00000000000;1260.00000000000;1341.00000000000;1291.00000000000;1258.00000000000;1264.00000000000;1329.00000000000;1355.00000000000;1349.00000000000;1292.00000000000;1282.00000000000;1285.00000000000;1213.00000000000;1218.00000000000;1165.00000000000;1126.00000000000;1117.00000000000;1114.00000000000;1111.00000000000;1122.00000000000;1095.00000000000;1087.00000000000;1064.00000000000;1106.00000000000;1123.00000000000;1128.00000000000;1189.00000000000;1107.00000000000;1017.00000000000;1028.00000000000;1201.00000000000;1216.00000000000;1069.00000000000;856.000000000000;959.000000000000;1135.00000000000;1139.00000000000;952.000000000000;905.000000000000;940.000000000000;861.000000000000;851.000000000000;891.000000000000;965.000000000000;966.000000000000;1029.00000000000;1138.00000000000;1109.00000000000;987.000000000000;904.000000000000;853.000000000000;950.000000000000;1002.00000000000;1031.00000000000;995.000000000000;931.000000000000;930.000000000000;955.000000000000;1002.00000000000;1011.00000000000;979.000000000000;928.000000000000;926.000000000000;949.000000000000;972.000000000000;984.000000000000;985.000000000000;947.000000000000;959.000000000000;949.000000000000;987.000000000000;994.000000000000;980.000000000000;956.000000000000;960.000000000000;983.000000000000;1000.00000000000;978.000000000000;988.000000000000;982.000000000000;967.000000000000;990.000000000000;962.000000000000
Accel Y : 2171.00000000000;2169.00000000000;2169.00000000000;2161.00000000000;2172.00000000000;2164.00000000000;2172.00000000000;2175.00000000000;2148.00000000000;2155.00000000000;2168.00000000000;2157.00000000000;2187.00000000000;2171.00000000000;2162.00000000000;2137.00000000000;2183.00000000000;2178.00000000000;2157.00000000000;2186.00000000000;2177.00000000000;2167.00000000000;2168.00000000000;2148.00000000000;2168.00000000000;2168.00000000000;2183.00000000000;2167.00000000000;2164.00000000000;2174.00000000000;2166.00000000000;2201.00000000000;2165.00000000000;2185.00000000000;2174.00000000000;2172.00000000000;2150.00000000000;2171.00000000000;2189.00000000000;2174.00000000000;2183.00000000000;2196.00000000000;2209.00000000000;2221.00000000000;2236.00000000000;2251.00000000000;2268.00000000000;2265.00000000000;2306.00000000000;2334.00000000000;2393.00000000000;2439.00000000000;2455.00000000000;2462.00000000000;2456.00000000000;2514.00000000000;2535.00000000000;2662.00000000000;2693.00000000000;2678.00000000000;2685.00000000000;2687.00000000000;2657.00000000000;2683.00000000000;2652.00000000000;2636.00000000000;2654.00000000000;2639.00000000000;2569.00000000000;2554.00000000000;2500.00000000000;2439.00000000000;2355.00000000000;2295.00000000000;2219.00000000000;2153.00000000000;2127.00000000000;2075.00000000000;2091.00000000000;2132.00000000000;2126.00000000000;2180.00000000000;2179.00000000000;2191.00000000000;2189.00000000000;2176.00000000000;2213.00000000000;2274.00000000000;2302.00000000000;2343.00000000000;2330.00000000000;2334.00000000000;2368.00000000000;2437.00000000000;2507.00000000000;2539.00000000000;2549.00000000000;2572.00000000000;2649.00000000000;2702.00000000000;2791.00000000000;2728.00000000000;2661.00000000000;2667.00000000000;2723.00000000000;2714.00000000000;2668.00000000000;2599.00000000000;2607.00000000000;2648.00000000000;2588.00000000000;2486.00000000000;2348.00000000000;2283.00000000000;2271.00000000000;2303.00000000000;2323.00000000000;2258.00000000000;2181.00000000000;2122.00000000000;2145.00000000000;2138.00000000000;2163.00000000000;2148.00000000000;2129.00000000000;2103.00000000000;2123.00000000000;2121.00000000000;2092.00000000000;2097.00000000000;2090.00000000000;2065.00000000000;2102.00000000000;2088.00000000000;2098.00000000000;2086.00000000000;2079.00000000000;2075.00000000000;2095.00000000000;2110.00000000000;2091.00000000000;2086.00000000000;2087.00000000000;2095.00000000000;2099.00000000000;2111.00000000000;2108.00000000000;2088.00000000000;2107.00000000000;2104.00000000000
Accel Z : 1793.00000000000;1795.00000000000;1763.00000000000;1760.00000000000;1766.00000000000;1766.00000000000;1776.00000000000;1760.00000000000;1770.00000000000;1797.00000000000;1778.00000000000;1783.00000000000;1789.00000000000;1770.00000000000;1741.00000000000;1776.00000000000;1770.00000000000;1755.00000000000;1747.00000000000;1790.00000000000;1751.00000000000;1761.00000000000;1764.00000000000;1756.00000000000;1757.00000000000;1780.00000000000;1762.00000000000;1749.00000000000;1790.00000000000;1781.00000000000;1787.00000000000;1739.00000000000;1767.00000000000;1769.00000000000;1784.00000000000;1770.00000000000;1782.00000000000;1812.00000000000;1786.00000000000;1822.00000000000;1849.00000000000;1886.00000000000;1864.00000000000;1937.00000000000;2018.00000000000;2087.00000000000;2123.00000000000;2174.00000000000;2200.00000000000;2223.00000000000;2180.00000000000;2224.00000000000;2188.00000000000;2157.00000000000;2081.00000000000;2152.00000000000;2019.00000000000;1995.00000000000;1940.00000000000;1808.00000000000;1497.00000000000;1403.00000000000;1361.00000000000;1259.00000000000;1144.00000000000;1037.00000000000;1035.00000000000;1051.00000000000;963.000000000000;879.000000000000;778.000000000000;791.000000000000;800.000000000000;782.000000000000;741.000000000000;689.000000000000;812.000000000000;821.000000000000;865.000000000000;920.000000000000;938.000000000000;939.000000000000;979.000000000000;1084.00000000000;1124.00000000000;1071.00000000000;1026.00000000000;1067.00000000000;1154.00000000000;1184.00000000000;1199.00000000000;1143.00000000000;1094.00000000000;1113.00000000000;1270.00000000000;1324.00000000000;1248.00000000000;1240.00000000000;1266.00000000000;1433.00000000000;1592.00000000000;1553.00000000000;1433.00000000000;1621.00000000000;1864.00000000000;1927.00000000000;1963.00000000000;1870.00000000000;2007.00000000000;2205.00000000000;2292.00000000000;2303.00000000000;2173.00000000000;2067.00000000000;2051.00000000000;2111.00000000000;2119.00000000000;2036.00000000000;1991.00000000000;1916.00000000000;1904.00000000000;1937.00000000000;1942.00000000000;1883.00000000000;1845.00000000000;1847.00000000000;1815.00000000000;1802.00000000000;1784.00000000000;1775.00000000000;1748.00000000000;1719.00000000000;1732.00000000000;1740.00000000000;1717.00000000000;1703.00000000000;1695.00000000000;1707.00000000000;1708.00000000000;1719.00000000000;1712.00000000000;1694.00000000000;1672.00000000000;1687.00000000000;1712.00000000000;1706.00000000000;1698.00000000000;1716.00000000000;1701.00000000000;1691.00000000000
Gyro X : 977.000000000000;973.000000000000;975.000000000000;972.000000000000;969.000000000000;977.000000000000;986.000000000000;972.000000000000;968.000000000000;957.000000000000;983.000000000000;986.000000000000;978.000000000000;986.000000000000;967.000000000000;973.000000000000;999.000000000000;971.000000000000;988.000000000000;972.000000000000;965.000000000000;981.000000000000;971.000000000000;985.000000000000;976.000000000000;1015.00000000000;978.000000000000;983.000000000000;981.000000000000;973.000000000000;970.000000000000;975.000000000000;971.000000000000;975.000000000000;960.000000000000;981.000000000000;987.000000000000;966.000000000000;988.000000000000;948.000000000000;952.000000000000;955.000000000000;984.000000000000;997.000000000000;941.000000000000;893.000000000000;849.000000000000;899.000000000000;941.000000000000;989.000000000000;884.000000000000;840.000000000000;866.000000000000;863.000000000000;815.000000000000;920.000000000000;810.000000000000;883.000000000000;890.000000000000;892.000000000000;958.000000000000;971.000000000000;1025.00000000000;1002.00000000000;1108.00000000000;1201.00000000000;1224.00000000000;1247.00000000000;1260.00000000000;1341.00000000000;1291.00000000000;1258.00000000000;1264.00000000000;1329.00000000000;1355.00000000000;1349.00000000000;1292.00000000000;1282.00000000000;1285.00000000000;1213.00000000000;1218.00000000000;1165.00000000000;1126.00000000000;1117.00000000000;1114.00000000000;1111.00000000000;1122.00000000000;1095.00000000000;1087.00000000000;1064.00000000000;1106.00000000000;1123.00000000000;1128.00000000000;1189.00000000000;1107.00000000000;1017.00000000000;1028.00000000000;1201.00000000000;1216.00000000000;1069.00000000000;856.000000000000;959.000000000000;1135.00000000000;1139.00000000000;952.000000000000;905.000000000000;940.000000000000;861.000000000000;851.000000000000;891.000000000000;965.000000000000;966.000000000000;1029.00000000000;1138.00000000000;1109.00000000000;987.000000000000;904.000000000000;853.000000000000;950.000000000000;1002.00000000000;1031.00000000000;995.000000000000;931.000000000000;930.000000000000;955.000000000000;1002.00000000000;1011.00000000000;979.000000000000;928.000000000000;926.000000000000;949.000000000000;972.000000000000;984.000000000000;985.000000000000;947.000000000000;959.000000000000;949.000000000000;987.000000000000;994.000000000000;980.000000000000;956.000000000000;960.000000000000;983.000000000000;1000.00000000000;978.000000000000;988.000000000000;982.000000000000;967.000000000000;990.000000000000;962.000000000000
Gyro Y : 2171.00000000000;2169.00000000000;2169.00000000000;2161.00000000000;2172.00000000000;2164.00000000000;2172.00000000000;2175.00000000000;2148.00000000000;2155.00000000000;2168.00000000000;2157.00000000000;2187.00000000000;2171.00000000000;2162.00000000000;2137.00000000000;2183.00000000000;2178.00000000000;2157.00000000000;2186.00000000000;2177.00000000000;2167.00000000000;2168.00000000000;2148.00000000000;2168.00000000000;2168.00000000000;2183.00000000000;2167.00000000000;2164.00000000000;2174.00000000000;2166.00000000000;2201.00000000000;2165.00000000000;2185.00000000000;2174.00000000000;2172.00000000000;2150.00000000000;2171.00000000000;2189.00000000000;2174.00000000000;2183.00000000000;2196.00000000000;2209.00000000000;2221.00000000000;2236.00000000000;2251.00000000000;2268.00000000000;2265.00000000000;2306.00000000000;2334.00000000000;2393.00000000000;2439.00000000000;2455.00000000000;2462.00000000000;2456.00000000000;2514.00000000000;2535.00000000000;2662.00000000000;2693.00000000000;2678.00000000000;2685.00000000000;2687.00000000000;2657.00000000000;2683.00000000000;2652.00000000000;2636.00000000000;2654.00000000000;2639.00000000000;2569.00000000000;2554.00000000000;2500.00000000000;2439.00000000000;2355.00000000000;2295.00000000000;2219.00000000000;2153.00000000000;2127.00000000000;2075.00000000000;2091.00000000000;2132.00000000000;2126.00000000000;2180.00000000000;2179.00000000000;2191.00000000000;2189.00000000000;2176.00000000000;2213.00000000000;2274.00000000000;2302.00000000000;2343.00000000000;2330.00000000000;2334.00000000000;2368.00000000000;2437.00000000000;2507.00000000000;2539.00000000000;2549.00000000000;2572.00000000000;2649.00000000000;2702.00000000000;2791.00000000000;2728.00000000000;2661.00000000000;2667.00000000000;2723.00000000000;2714.00000000000;2668.00000000000;2599.00000000000;2607.00000000000;2648.00000000000;2588.00000000000;2486.00000000000;2348.00000000000;2283.00000000000;2271.00000000000;2303.00000000000;2323.00000000000;2258.00000000000;2181.00000000000;2122.00000000000;2145.00000000000;2138.00000000000;2163.00000000000;2148.00000000000;2129.00000000000;2103.00000000000;2123.00000000000;2121.00000000000;2092.00000000000;2097.00000000000;2090.00000000000;2065.00000000000;2102.00000000000;2088.00000000000;2098.00000000000;2086.00000000000;2079.00000000000;2075.00000000000;2095.00000000000;2110.00000000000;2091.00000000000;2086.00000000000;2087.00000000000;2095.00000000000;2099.00000000000;2111.00000000000;2108.00000000000;2088.00000000000;2107.00000000000;2104.00000000000
Gyro Z : 1793.00000000000;1795.00000000000;1763.00000000000;1760.00000000000;1766.00000000000;1766.00000000000;1776.00000000000;1760.00000000000;1770.00000000000;1797.00000000000;1778.00000000000;1783.00000000000;1789.00000000000;1770.00000000000;1741.00000000000;1776.00000000000;1770.00000000000;1755.00000000000;1747.00000000000;1790.00000000000;1751.00000000000;1761.00000000000;1764.00000000000;1756.00000000000;1757.00000000000;1780.00000000000;1762.00000000000;1749.00000000000;1790.00000000000;1781.00000000000;1787.00000000000;1739.00000000000;1767.00000000000;1769.00000000000;1784.00000000000;1770.00000000000;1782.00000000000;1812.00000000000;1786.00000000000;1822.00000000000;1849.00000000000;1886.00000000000;1864.00000000000;1937.00000000000;2018.00000000000;2087.00000000000;2123.00000000000;2174.00000000000;2200.00000000000;2223.00000000000;2180.00000000000;2224.00000000000;2188.00000000000;2157.00000000000;2081.00000000000;2152.00000000000;2019.00000000000;1995.00000000000;1940.00000000000;1808.00000000000;1497.00000000000;1403.00000000000;1361.00000000000;1259.00000000000;1144.00000000000;1037.00000000000;1035.00000000000;1051.00000000000;963.000000000000;879.000000000000;778.000000000000;791.000000000000;800.000000000000;782.000000000000;741.000000000000;689.000000000000;812.000000000000;821.000000000000;865.000000000000;920.000000000000;938.000000000000;939.000000000000;979.000000000000;1084.00000000000;1124.00000000000;1071.00000000000;1026.00000000000;1067.00000000000;1154.00000000000;1184.00000000000;1199.00000000000;1143.00000000000;1094.00000000000;1113.00000000000;1270.00000000000;1324.00000000000;1248.00000000000;1240.00000000000;1266.00000000000;1433.00000000000;1592.00000000000;1553.00000000000;1433.00000000000;1621.00000000000;1864.00000000000;1927.00000000000;1963.00000000000;1870.00000000000;2007.00000000000;2205.00000000000;2292.00000000000;2303.00000000000;2173.00000000000;2067.00000000000;2051.00000000000;2111.00000000000;2119.00000000000;2036.00000000000;1991.00000000000;1916.00000000000;1904.00000000000;1937.00000000000;1942.00000000000;1883.00000000000;1845.00000000000;1847.00000000000;1815.00000000000;1802.00000000000;1784.00000000000;1775.00000000000;1748.00000000000;1719.00000000000;1732.00000000000;1740.00000000000;1717.00000000000;1703.00000000000;1695.00000000000;1707.00000000000;1708.00000000000;1719.00000000000;1712.00000000000;1694.00000000000;1672.00000000000;1687.00000000000;1712.00000000000;1706.00000000000;1698.00000000000;1716.00000000000;1701.00000000000;1691.00000000000
