COMMAND 6 SAMPLE 1
Accel X : 948.000000000000;962.000000000000;953.000000000000;968.000000000000;989.000000000000;978.000000000000;967.000000000000;969.000000000000;963.000000000000;962.000000000000;1004.00000000000;995.000000000000;983.000000000000;995.000000000000;971.000000000000;976.000000000000;982.000000000000;992.000000000000;974.000000000000;987.000000000000;962.000000000000;967.000000000000;964.000000000000;974.000000000000;991.000000000000;977.000000000000;976.000000000000;985.000000000000;969.000000000000;976.000000000000;967.000000000000;987.000000000000;989.000000000000;951.000000000000;952.000000000000;967.000000000000;963.000000000000;941.000000000000;974.000000000000;994.000000000000;992.000000000000;891.000000000000;733.000000000000;827.000000000000;1091.00000000000;1228.00000000000;1004.00000000000;821.000000000000;1134.00000000000;1411.00000000000;1585.00000000000;1234.00000000000;1360.00000000000;1560.00000000000;1757.00000000000;1571.00000000000;1504.00000000000;1563.00000000000;1604.00000000000;1630.00000000000;1656.00000000000;1691.00000000000;1678.00000000000;1696.00000000000;1712.00000000000;1785.00000000000;1759.00000000000;1738.00000000000;1741.00000000000;1753.00000000000;1796.00000000000;1772.00000000000;1754.00000000000;1762.00000000000;1777.00000000000;1803.00000000000;1810.00000000000;1794.00000000000;1784.00000000000;1811.00000000000;1795.00000000000;1778.00000000000;1820.00000000000;1806.00000000000;1815.00000000000;1808.00000000000;1788.00000000000;1847.00000000000;1843.00000000000;1847.00000000000;1788.00000000000;1797.00000000000;1812.00000000000;1805.00000000000;1812.00000000000;1819.00000000000;1791.00000000000;1835.00000000000;1834.00000000000;1832.00000000000;1810.00000000000;1791.00000000000;1819.00000000000;1891.00000000000;1907.00000000000;1902.00000000000;1735.00000000000;1573.00000000000;1734.00000000000;1801.00000000000;1609.00000000000;1308.00000000000;1175.00000000000;1207.00000000000;1117.00000000000;1165.00000000000;915.000000000000;897.000000000000;995.000000000000;811.000000000000;862.000000000000;888.000000000000;1116.00000000000;929.000000000000;946.000000000000;943.000000000000;897.000000000000;928.000000000000;973.000000000000;976.000000000000;971.000000000000;982.000000000000;987.000000000000;977.000000000000;1019.00000000000;988.000000000000;962.000000000000;974.000000000000;990.000000000000;982.000000000000;958.000000000000;973.000000000000;958.000000000000;1004.00000000000;965.000000000000;969.000000000000;962.000000000000;991.000000000000;1011.00000000000;1011.00000000000
Accel Y : 2248.00000000000;2258.00000000000;2215.00000000000;2232.00000000000;2244.00000000000;2252.00000000000;2271.00000000000;2249.00000000000;2274.00000000000;2255.00000000000;2255.00000000000;2263.00000000000;2275.00000000000;2253.00000000000;2276.00000000000;2243.00000000000;2242.00000000000;2218.00000000000;2219.00000000000;2253.00000000000;2271.00000000000;2252.00000000000;2248.00000000000;2237.00000000000;2238.00000000000;2242.00000000000;2251.00000000000;2232.00000000000;2235.00000000000;2236.00000000000;2234.00000000000;2228.00000000000;2225.00000000000;2231.00000000000;2223.00000000000;2241.00000000000;2223.00000000000;2225.00000000000;2208.00000000000;2263.00000000000;2241.00000000000;2237.00000000000;2255.00000000000;2233.00000000000;2259.00000000000;2219.00000000000;2230.00000000000;2243.00000000000;2215.00000000000;2178.00000000000;2135.00000000000;2187.00000000000;2246.00000000000;2228.00000000000;2207.00000000000;2246.00000000000;2258.00000000000;2263.00000000000;2257.00000000000;2254.00000000000;2287.00000000000;2314.00000000000;2279.00000000000;2268.00000000000;2303.00000000000;2287.00000000000;2304.00000000000;2302.00000000000;2295.00000000000;2286.00000000000;2255.00000000000;2300.00000000000;2284.00000000000;2301.00000000000;2287.00000000000;2273.00000000000;2312.00000000000;2320.00000000000;2272.00000000000;2296.00000000000;2295.00000000000;2309.00000000000;2312.00000000000;2322.00000000000;2306.00000000000;2286.00000000000;2313.00000000000;2309.00000000000;2300.00000000000;2284.00000000000;2313.00000000000;2271.00000000000;2329.00000000000;2312.00000000000;2285.00000000000;2288.00000000000;2314.00000000000;2310.00000000000;2302.00000000000;2296.00000000000;2323.00000000000;2333.00000000000;2345.00000000000;2290.00000000000;2335.00000000000;2338.00000000000;2343.00000000000;2297.00000000000;2353.00000000000;2299.00000000000;2335.00000000000;2371.00000000000;2356.00000000000;2340.00000000000;2283.00000000000;2294.00000000000;2284.00000000000;2253.00000000000;2215.00000000000;2197.00000000000;2190.00000000000;2211.00000000000;2246.00000000000;2147.00000000000;2170.00000000000;2163.00000000000;2185.00000000000;2183.00000000000;2183.00000000000;2201.00000000000;2183.00000000000;2177.00000000000;2176.00000000000;2200.00000000000;2194.00000000000;2172.00000000000;2167.00000000000;2188.00000000000;2199.00000000000;2198.00000000000;2198.00000000000;2183.00000000000;2181.00000000000;2183.00000000000;2185.00000000000;2197.00000000000;2191.00000000000;2164.00000000000;2215.00000000000;2202.00000000000
Accel Z : 1724.00000000000;1749.00000000000;1739.00000000000;1723.00000000000;1742.00000000000;1727.00000000000;1738.00000000000;1754.00000000000;1746.00000000000;1736.00000000000;1729.00000000000;1746.00000000000;1744.00000000000;1745.00000000000;1771.00000000000;1771.00000000000;1765.00000000000;1747.00000000000;1781.00000000000;1774.00000000000;1751.00000000000;1775.00000000000;1752.00000000000;1748.00000000000;1753.00000000000;1763.00000000000;1769.00000000000;1761.00000000000;1782.00000000000;1757.00000000000;1767.00000000000;1758.00000000000;1756.00000000000;1801.00000000000;1795.00000000000;1807.00000000000;1791.00000000000;1781.00000000000;1816.00000000000;1871.00000000000;1886.00000000000;1856.00000000000;1839.00000000000;1899.00000000000;2031.00000000000;2126.00000000000;2038.00000000000;2119.00000000000;2225.00000000000;2257.00000000000;2402.00000000000;2363.00000000000;2428.00000000000;2496.00000000000;2550.00000000000;2544.00000000000;2566.00000000000;2574.00000000000;2589.00000000000;2625.00000000000;2667.00000000000;2672.00000000000;2627.00000000000;2597.00000000000;2640.00000000000;2685.00000000000;2695.00000000000;2709.00000000000;2665.00000000000;2616.00000000000;2632.00000000000;2673.00000000000;2646.00000000000;2688.00000000000;2647.00000000000;2604.00000000000;2602.00000000000;2661.00000000000;2656.00000000000;2652.00000000000;2630.00000000000;2617.00000000000;2679.00000000000;2682.00000000000;2656.00000000000;2681.00000000000;2677.00000000000;2663.00000000000;2661.00000000000;2675.00000000000;2655.00000000000;2651.00000000000;2657.00000000000;2670.00000000000;2662.00000000000;2662.00000000000;2669.00000000000;2659.00000000000;2632.00000000000;2657.00000000000;2661.00000000000;2682.00000000000;2653.00000000000;2644.00000000000;2651.00000000000;2627.00000000000;2575.00000000000;2567.00000000000;2636.00000000000;2638.00000000000;2527.00000000000;2399.00000000000;2298.00000000000;2202.00000000000;2148.00000000000;2155.00000000000;2055.00000000000;1970.00000000000;1821.00000000000;1699.00000000000;1730.00000000000;1797.00000000000;1746.00000000000;1677.00000000000;1671.00000000000;1650.00000000000;1648.00000000000;1618.00000000000;1625.00000000000;1591.00000000000;1594.00000000000;1582.00000000000;1620.00000000000;1597.00000000000;1572.00000000000;1577.00000000000;1575.00000000000;1610.00000000000;1611.00000000000;1615.00000000000;1593.00000000000;1587.00000000000;1634.00000000000;1630.00000000000;1623.00000000000;1648.00000000000;1613.00000000000;1607.00000000000;1643.00000000000;1647.00000000000
Gyro X : 948.000000000000;962.000000000000;953.000000000000;968.000000000000;989.000000000000;978.000000000000;967.000000000000;969.000000000000;963.000000000000;962.000000000000;1004.00000000000;995.000000000000;983.000000000000;995.000000000000;971.000000000000;976.000000000000;982.000000000000;992.000000000000;974.000000000000;987.000000000000;962.000000000000;967.000000000000;964.000000000000;974.000000000000;991.000000000000;977.000000000000;976.000000000000;985.000000000000;969.000000000000;976.000000000000;967.000000000000;987.000000000000;989.000000000000;951.000000000000;952.000000000000;967.000000000000;963.000000000000;941.000000000000;974.000000000000;994.000000000000;992.000000000000;891.000000000000;733.000000000000;827.000000000000;1091.00000000000;1228.00000000000;1004.00000000000;821.000000000000;1134.00000000000;1411.00000000000;1585.00000000000;1234.00000000000;1360.00000000000;1560.00000000000;1757.00000000000;1571.00000000000;1504.00000000000;1563.00000000000;1604.00000000000;1630.00000000000;1656.00000000000;1691.00000000000;1678.00000000000;1696.00000000000;1712.00000000000;1785.00000000000;1759.00000000000;1738.00000000000;1741.00000000000;1753.00000000000;1796.00000000000;1772.00000000000;1754.00000000000;1762.00000000000;1777.00000000000;1803.00000000000;1810.00000000000;1794.00000000000;1784.00000000000;1811.00000000000;1795.00000000000;1778.00000000000;1820.00000000000;1806.00000000000;1815.00000000000;1808.00000000000;1788.00000000000;1847.00000000000;1843.00000000000;1847.00000000000;1788.00000000000;1797.00000000000;1812.00000000000;1805.00000000000;1812.00000000000;1819.00000000000;1791.00000000000;1835.00000000000;1834.00000000000;1832.00000000000;1810.00000000000;1791.00000000000;1819.00000000000;1891.00000000000;1907.00000000000;1902.00000000000;1735.00000000000;1573.00000000000;1734.00000000000;1801.00000000000;1609.00000000000;1308.00000000000;1175.00000000000;1207.00000000000;1117.00000000000;1165.00000000000;915.000000000000;897.000000000000;995.000000000000;811.000000000000;862.000000000000;888.000000000000;1116.00000000000;929.000000000000;946.000000000000;943.000000000000;897.000000000000;928.000000000000;973.000000000000;976.000000000000;971.000000000000;982.000000000000;987.000000000000;977.000000000000;1019.00000000000;988.000000000000;962.000000000000;974.000000000000;990.000000000000;982.000000000000;958.000000000000;973.000000000000;958.000000000000;1004.00000000000;965.000000000000;969.000000000000;962.000000000000;991.000000000000;1011.00000000000;1011.00000000000
Gyro Y : 2248.00000000000;2258.00000000000;2215.00000000000;2232.00000000000;2244.00000000000;2252.00000000000;2271.00000000000;2249.00000000000;2274.00000000000;2255.00000000000;2255.00000000000;2263.00000000000;2275.00000000000;2253.00000000000;2276.00000000000;2243.00000000000;2242.00000000000;2218.00000000000;2219.00000000000;2253.00000000000;2271.00000000000;2252.00000000000;2248.00000000000;2237.00000000000;2238.00000000000;2242.00000000000;2251.00000000000;2232.00000000000;2235.00000000000;2236.00000000000;2234.00000000000;2228.00000000000;2225.00000000000;2231.00000000000;2223.00000000000;2241.00000000000;2223.00000000000;2225.00000000000;2208.00000000000;2263.00000000000;2241.00000000000;2237.00000000000;2255.00000000000;2233.00000000000;2259.00000000000;2219.00000000000;2230.00000000000;2243.00000000000;2215.00000000000;2178.00000000000;2135.00000000000;2187.00000000000;2246.00000000000;2228.00000000000;2207.00000000000;2246.00000000000;2258.00000000000;2263.00000000000;2257.00000000000;2254.00000000000;2287.00000000000;2314.00000000000;2279.00000000000;2268.00000000000;2303.00000000000;2287.00000000000;2304.00000000000;2302.00000000000;2295.00000000000;2286.00000000000;2255.00000000000;2300.00000000000;2284.00000000000;2301.00000000000;2287.00000000000;2273.00000000000;2312.00000000000;2320.00000000000;2272.00000000000;2296.00000000000;2295.00000000000;2309.00000000000;2312.00000000000;2322.00000000000;2306.00000000000;2286.00000000000;2313.00000000000;2309.00000000000;2300.00000000000;2284.00000000000;2313.00000000000;2271.00000000000;2329.00000000000;2312.00000000000;2285.00000000000;2288.00000000000;2314.00000000000;2310.00000000000;2302.00000000000;2296.00000000000;2323.00000000000;2333.00000000000;2345.00000000000;2290.00000000000;2335.00000000000;2338.00000000000;2343.00000000000;2297.00000000000;2353.00000000000;2299.00000000000;2335.00000000000;2371.00000000000;2356.00000000000;2340.00000000000;2283.00000000000;2294.00000000000;2284.00000000000;2253.00000000000;2215.00000000000;2197.00000000000;2190.00000000000;2211.00000000000;2246.00000000000;2147.00000000000;2170.00000000000;2163.00000000000;2185.00000000000;2183.00000000000;2183.00000000000;2201.00000000000;2183.00000000000;2177.00000000000;2176.00000000000;2200.00000000000;2194.00000000000;2172.00000000000;2167.00000000000;2188.00000000000;2199.00000000000;2198.00000000000;2198.00000000000;2183.00000000000;2181.00000000000;2183.00000000000;2185.00000000000;2197.00000000000;2191.00000000000;2164.00000000000;2215.00000000000;2202.00000000000
Gyro Z : 1724.00000000000;1749.00000000000;1739.00000000000;1723.00000000000;1742.00000000000;1727.00000000000;1738.00000000000;1754.00000000000;1746.00000000000;1736.00000000000;1729.00000000000;1746.00000000000;1744.00000000000;1745.00000000000;1771.00000000000;1771.00000000000;1765.00000000000;1747.00000000000;1781.00000000000;1774.00000000000;1751.00000000000;1775.00000000000;1752.00000000000;1748.00000000000;1753.00000000000;1763.00000000000;1769.00000000000;1761.00000000000;1782.00000000000;1757.00000000000;1767.00000000000;1758.00000000000;1756.00000000000;1801.00000000000;1795.00000000000;1807.00000000000;1791.00000000000;1781.00000000000;1816.00000000000;1871.00000000000;1886.00000000000;1856.00000000000;1839.00000000000;1899.00000000000;2031.00000000000;2126.00000000000;2038.00000000000;2119.00000000000;2225.00000000000;2257.00000000000;2402.00000000000;2363.00000000000;2428.00000000000;2496.00000000000;2550.00000000000;2544.00000000000;2566.00000000000;2574.00000000000;2589.00000000000;2625.00000000000;2667.00000000000;2672.00000000000;2627.00000000000;2597.00000000000;2640.00000000000;2685.00000000000;2695.00000000000;2709.00000000000;2665.00000000000;2616.00000000000;2632.00000000000;2673.00000000000;2646.00000000000;2688.00000000000;2647.00000000000;2604.00000000000;2602.00000000000;2661.00000000000;2656.00000000000;2652.00000000000;2630.00000000000;2617.00000000000;2679.00000000000;2682.00000000000;2656.00000000000;2681.00000000000;2677.00000000000;2663.00000000000;2661.00000000000;2675.00000000000;2655.00000000000;2651.00000000000;2657.00000000000;2670.00000000000;2662.00000000000;2662.00000000000;2669.00000000000;2659.00000000000;2632.00000000000;2657.00000000000;2661.00000000000;2682.00000000000;2653.00000000000;2644.00000000000;2651.00000000000;2627.00000000000;2575.00000000000;2567.00000000000;2636.00000000000;2638.00000000000;2527.00000000000;2399.00000000000;2298.00000000000;2202.00000000000;2148.00000000000;2155.00000000000;2055.00000000000;1970.00000000000;1821.00000000000;1699.00000000000;1730.00000000000;1797.00000000000;1746.00000000000;1677.00000000000;1671.00000000000;1650.00000000000;1648.00000000000;1618.00000000000;1625.00000000000;1591.00000000000;1594.00000000000;1582.00000000000;1620.00000000000;1597.00000000000;1572.00000000000;1577.00000000000;1575.00000000000;1610.00000000000;1611.00000000000;1615.00000000000;1593.00000000000;1587.00000000000;1634.00000000000;1630.00000000000;1623.00000000000;1648.00000000000;1613.00000000000;1607.00000000000;1643.00000000000;1647.00000000000
