COMMAND 5 SAMPLE 1
Accel X : 1019.00000000000;1028.00000000000;1040.00000000000;1039.00000000000;1033.00000000000;1059.00000000000;1072.00000000000;1013.00000000000;1010.00000000000;1013.00000000000;976.000000000000;1010.00000000000;1012.00000000000;953.000000000000;954.000000000000;957.000000000000;960.000000000000;953.000000000000;927.000000000000;928.000000000000;945.000000000000;937.000000000000;965.000000000000;1002.00000000000;975.000000000000;960.000000000000;963.000000000000;978.000000000000;994.000000000000;1007.00000000000;970.000000000000;977.000000000000;982.000000000000;990.000000000000;1012.00000000000;1002.00000000000;992.000000000000;987.000000000000;980.000000000000;993.000000000000;982.000000000000;994.000000000000;971.000000000000;949.000000000000;967.000000000000;983.000000000000;987.000000000000;981.000000000000;969.000000000000;970.000000000000;965.000000000000;957.000000000000;959.000000000000;969.000000000000;970.000000000000;976.000000000000;976.000000000000;985.000000000000;984.000000000000;975.000000000000;951.000000000000;987.000000000000;992.000000000000;967.000000000000;1000.00000000000;980.000000000000;992.000000000000;998.000000000000;1008.00000000000;972.000000000000;986.000000000000;955.000000000000;990.000000000000;983.000000000000;960.000000000000;989.000000000000;969.000000000000;993.000000000000;966.000000000000;978.000000000000;986.000000000000;987.000000000000;982.000000000000;995.000000000000;943.000000000000;981.000000000000;999.000000000000;972.000000000000;986.000000000000;979.000000000000;993.000000000000;993.000000000000;959.000000000000;960.000000000000;976.000000000000;944.000000000000;996.000000000000;966.000000000000;975.000000000000;975.000000000000;980.000000000000;983.000000000000;993.000000000000;992.000000000000;988.000000000000;997.000000000000;976.000000000000;977.000000000000;973.000000000000;995.000000000000;993.000000000000;974.000000000000;975.000000000000;995.000000000000;984.000000000000;992.000000000000;983.000000000000;977.000000000000;976.000000000000;962.000000000000;994.000000000000;991.000000000000;987.000000000000;975.000000000000;970.000000000000;993.000000000000;991.000000000000;982.000000000000;975.000000000000;1001.00000000000;1001.00000000000;997.000000000000;997.000000000000;980.000000000000;971.000000000000;995.000000000000;980.000000000000;974.000000000000;1000.00000000000;1003.00000000000;1018.00000000000;979.000000000000;986.000000000000;956.000000000000;994.000000000000;1005.00000000000;992.000000000000;995.000000000000;989.000000000000;974.000000000000
Accel Y : 2168.00000000000;2143.00000000000;2154.00000000000;2145.00000000000;2135.00000000000;2139.00000000000;2148.00000000000;2149.00000000000;2128.00000000000;2104.00000000000;2121.00000000000;2107.00000000000;2141.00000000000;2116.00000000000;2142.00000000000;2107.00000000000;2117.00000000000;2129.00000000000;2141.00000000000;2139.00000000000;2156.00000000000;2153.00000000000;2168.00000000000;2155.00000000000;2179.00000000000;2174.00000000000;2171.00000000000;2194.00000000000;2206.00000000000;2146.00000000000;2202.00000000000;2197.00000000000;2191.00000000000;2189.00000000000;2153.00000000000;2146.00000000000;2153.00000000000;2152.00000000000;2131.00000000000;2159.00000000000;2147.00000000000;2168.00000000000;2145.00000000000;2149.00000000000;2126.00000000000;2158.00000000000;2143.00000000000;2131.00000000000;2160.00000000000;2148.00000000000;2172.00000000000;2168.00000000000;2183.00000000000;2159.00000000000;2178.00000000000;2165.00000000000;2195.00000000000;2175.00000000000;2183.00000000000;2187.00000000000;2189.00000000000;2177.00000000000;2179.00000000000;2150.00000000000;2183.00000000000;2183.00000000000;2173.00000000000;2165.00000000000;2171.00000000000;2167.00000000000;2173.00000000000;2160.00000000000;2171.00000000000;2156.00000000000;2174.00000000000;2167.00000000000;2175.00000000000;2180.00000000000;2190.00000000000;2177.00000000000;2203.00000000000;2156.00000000000;2169.00000000000;2156.00000000000;2175.00000000000;2194.00000000000;2184.00000000000;2187.00000000000;2160.00000000000;2179.00000000000;2149.00000000000;2173.00000000000;2168.00000000000;2177.00000000000;2175.00000000000;2139.00000000000;2147.00000000000;2183.00000000000;2155.00000000000;2192.00000000000;2157.00000000000;2180.00000000000;2158.00000000000;2164.00000000000;2153.00000000000;2149.00000000000;2171.00000000000;2155.00000000000;2162.00000000000;2167.00000000000;2179.00000000000;2140.00000000000;2146.00000000000;2163.00000000000;2166.00000000000;2185.00000000000;2160.00000000000;2155.00000000000;2150.00000000000;2137.00000000000;2158.00000000000;2187.00000000000;2181.00000000000;2186.00000000000;2177.00000000000;2163.00000000000;2165.00000000000;2167.00000000000;2183.00000000000;2151.00000000000;2158.00000000000;2157.00000000000;2173.00000000000;2170.00000000000;2178.00000000000;2179.00000000000;2194.00000000000;2167.00000000000;2192.00000000000;2151.00000000000;2140.00000000000;2184.00000000000;2168.00000000000;2176.00000000000;2174.00000000000;2185.00000000000;2189.00000000000;2170.00000000000;2176.00000000000;2179.00000000000
Accel Z : 1812.00000000000;1784.00000000000;1773.00000000000;1762.00000000000;1733.00000000000;1743.00000000000;1788.00000000000;1790.00000000000;1776.00000000000;1769.00000000000;1781.00000000000;1799.00000000000;1804.00000000000;1782.00000000000;1818.00000000000;1786.00000000000;1797.00000000000;1824.00000000000;1815.00000000000;1817.00000000000;1794.00000000000;1795.00000000000;1814.00000000000;1822.00000000000;1807.00000000000;1803.00000000000;1789.00000000000;1791.00000000000;1815.00000000000;1814.00000000000;1790.00000000000;1772.00000000000;1793.00000000000;1777.00000000000;1777.00000000000;1805.00000000000;1817.00000000000;1808.00000000000;1788.00000000000;1772.00000000000;1796.00000000000;1806.00000000000;1836.00000000000;1810.00000000000;1771.00000000000;1807.00000000000;1797.00000000000;1819.00000000000;1799.00000000000;1778.00000000000;1769.00000000000;1787.00000000000;1800.00000000000;1815.00000000000;1827.00000000000;1800.00000000000;1778.00000000000;1784.00000000000;1792.00000000000;1801.00000000000;1807.00000000000;1767.00000000000;1781.00000000000;1809.00000000000;1819.00000000000;1813.00000000000;1812.00000000000;1808.00000000000;1788.00000000000;1827.00000000000;1807.00000000000;1822.00000000000;1802.00000000000;1793.00000000000;1803.00000000000;1811.00000000000;1819.00000000000;1814.00000000000;1787.00000000000;1806.00000000000;1803.00000000000;1803.00000000000;1813.00000000000;1801.00000000000;1825.00000000000;1808.00000000000;1810.00000000000;1838.00000000000;1829.00000000000;1817.00000000000;1821.00000000000;1817.00000000000;1832.00000000000;1814.00000000000;1824.00000000000;1829.00000000000;1832.00000000000;1825.00000000000;1838.00000000000;1823.00000000000;1809.00000000000;1794.00000000000;1820.00000000000;1802.00000000000;1821.00000000000;1815.00000000000;1815.00000000000;1809.00000000000;1797.00000000000;1808.00000000000;1798.00000000000;1801.00000000000;1812.00000000000;1807.00000000000;1812.00000000000;1826.00000000000;1819.00000000000;1813.00000000000;1808.00000000000;1776.00000000000;1800.00000000000;1800.00000000000;1787.00000000000;1819.00000000000;1802.00000000000;1824.00000000000;1830.00000000000;1823.00000000000;1813.00000000000;1836.00000000000;1825.00000000000;1822.00000000000;1832.00000000000;1821.00000000000;1811.00000000000;1807.00000000000;1816.00000000000;1821.00000000000;1811.00000000000;1832.00000000000;1840.00000000000;1835.00000000000;1825.00000000000;1823.00000000000;1804.00000000000;1829.00000000000;1838.00000000000;1838.00000000000;1818.00000000000;1831.00000000000
Gyro X : 1019.00000000000;1028.00000000000;1040.00000000000;1039.00000000000;1033.00000000000;1059.00000000000;1072.00000000000;1013.00000000000;1010.00000000000;1013.00000000000;976.000000000000;1010.00000000000;1012.00000000000;953.000000000000;954.000000000000;957.000000000000;960.000000000000;953.000000000000;927.000000000000;928.000000000000;945.000000000000;937.000000000000;965.000000000000;1002.00000000000;975.000000000000;960.000000000000;963.000000000000;978.000000000000;994.000000000000;1007.00000000000;970.000000000000;977.000000000000;982.000000000000;990.000000000000;1012.00000000000;1002.00000000000;992.000000000000;987.000000000000;980.000000000000;993.000000000000;982.000000000000;994.000000000000;971.000000000000;949.000000000000;967.000000000000;983.000000000000;987.000000000000;981.000000000000;969.000000000000;970.000000000000;965.000000000000;957.000000000000;959.000000000000;969.000000000000;970.000000000000;976.000000000000;976.000000000000;985.000000000000;984.000000000000;975.000000000000;951.000000000000;987.000000000000;992.000000000000;967.000000000000;1000.00000000000;980.000000000000;992.000000000000;998.000000000000;1008.00000000000;972.000000000000;986.000000000000;955.000000000000;990.000000000000;983.000000000000;960.000000000000;989.000000000000;969.000000000000;993.000000000000;966.000000000000;978.000000000000;986.000000000000;987.000000000000;982.000000000000;995.000000000000;943.000000000000;981.000000000000;999.000000000000;972.000000000000;986.000000000000;979.000000000000;993.000000000000;993.000000000000;959.000000000000;960.000000000000;976.000000000000;944.000000000000;996.000000000000;966.000000000000;975.000000000000;975.000000000000;980.000000000000;983.000000000000;993.000000000000;992.000000000000;988.000000000000;997.000000000000;976.000000000000;977.000000000000;973.000000000000;995.000000000000;993.000000000000;974.000000000000;975.000000000000;995.000000000000;984.000000000000;992.000000000000;983.000000000000;977.000000000000;976.000000000000;962.000000000000;994.000000000000;991.000000000000;987.000000000000;975.000000000000;970.000000000000;993.000000000000;991.000000000000;982.000000000000;975.000000000000;1001.00000000000;1001.00000000000;997.000000000000;997.000000000000;980.000000000000;971.000000000000;995.000000000000;980.000000000000;974.000000000000;1000.00000000000;1003.00000000000;1018.00000000000;979.000000000000;986.000000000000;956.000000000000;994.000000000000;1005.00000000000;992.000000000000;995.000000000000;989.000000000000;974.000000000000
Gyro Y : 2168.00000000000;2143.00000000000;2154.00000000000;2145.00000000000;2135.00000000000;2139.00000000000;2148.00000000000;2149.00000000000;2128.00000000000;2104.00000000000;2121.00000000000;2107.00000000000;2141.00000000000;2116.00000000000;2142.00000000000;2107.00000000000;2117.00000000000;2129.00000000000;2141.00000000000;2139.00000000000;2156.00000000000;2153.00000000000;2168.00000000000;2155.00000000000;2179.00000000000;2174.00000000000;2171.00000000000;2194.00000000000;2206.00000000000;2146.00000000000;2202.00000000000;2197.00000000000;2191.00000000000;2189.00000000000;2153.00000000000;2146.00000000000;2153.00000000000;2152.00000000000;2131.00000000000;2159.00000000000;2147.00000000000;2168.00000000000;2145.00000000000;2149.00000000000;2126.00000000000;2158.00000000000;2143.00000000000;2131.00000000000;2160.00000000000;2148.00000000000;2172.00000000000;2168.00000000000;2183.00000000000;2159.00000000000;2178.00000000000;2165.00000000000;2195.00000000000;2175.00000000000;2183.00000000000;2187.00000000000;2189.00000000000;2177.00000000000;2179.00000000000;2150.00000000000;2183.00000000000;2183.00000000000;2173.00000000000;2165.00000000000;2171.00000000000;2167.00000000000;2173.00000000000;2160.00000000000;2171.00000000000;2156.00000000000;2174.00000000000;2167.00000000000;2175.00000000000;2180.00000000000;2190.00000000000;2177.00000000000;2203.00000000000;2156.00000000000;2169.00000000000;2156.00000000000;2175.00000000000;2194.00000000000;2184.00000000000;2187.00000000000;2160.00000000000;2179.00000000000;2149.00000000000;2173.00000000000;2168.00000000000;2177.00000000000;2175.00000000000;2139.00000000000;2147.00000000000;2183.00000000000;2155.00000000000;2192.00000000000;2157.00000000000;2180.00000000000;2158.00000000000;2164.00000000000;2153.00000000000;2149.00000000000;2171.00000000000;2155.00000000000;2162.00000000000;2167.00000000000;2179.00000000000;2140.00000000000;2146.00000000000;2163.00000000000;2166.00000000000;2185.00000000000;2160.00000000000;2155.00000000000;2150.00000000000;2137.00000000000;2158.00000000000;2187.00000000000;2181.00000000000;2186.00000000000;2177.00000000000;2163.00000000000;2165.00000000000;2167.00000000000;2183.00000000000;2151.00000000000;2158.00000000000;2157.00000000000;2173.00000000000;2170.00000000000;2178.00000000000;2179.00000000000;2194.00000000000;2167.00000000000;2192.00000000000;2151.00000000000;2140.00000000000;2184.00000000000;2168.00000000000;2176.00000000000;2174.00000000000;2185.00000000000;2189.00000000000;2170.00000000000;2176.00000000000;2179.00000000000
Gyro Z : 1812.00000000000;1784.00000000000;1773.00000000000;1762.00000000000;1733.00000000000;1743.00000000000;1788.00000000000;1790.00000000000;1776.00000000000;1769.00000000000;1781.00000000000;1799.00000000000;1804.00000000000;1782.00000000000;1818.00000000000;1786.00000000000;1797.00000000000;1824.00000000000;1815.00000000000;1817.00000000000;1794.00000000000;1795.00000000000;1814.00000000000;1822.00000000000;1807.00000000000;1803.00000000000;1789.00000000000;1791.00000000000;1815.00000000000;1814.00000000000;1790.00000000000;1772.00000000000;1793.00000000000;1777.00000000000;1777.00000000000;1805.00000000000;1817.00000000000;1808.00000000000;1788.00000000000;1772.00000000000;1796.00000000000;1806.00000000000;1836.00000000000;1810.00000000000;1771.00000000000;1807.00000000000;1797.00000000000;1819.00000000000;1799.00000000000;1778.00000000000;1769.00000000000;1787.00000000000;1800.00000000000;1815.00000000000;1827.00000000000;1800.00000000000;1778.00000000000;1784.00000000000;1792.00000000000;1801.00000000000;1807.00000000000;1767.00000000000;1781.00000000000;1809.00000000000;1819.00000000000;1813.00000000000;1812.00000000000;1808.00000000000;1788.00000000000;1827.00000000000;1807.00000000000;1822.00000000000;1802.00000000000;1793.00000000000;1803.00000000000;1811.00000000000;1819.00000000000;1814.00000000000;1787.00000000000;1806.00000000000;1803.00000000000;1803.00000000000;1813.00000000000;1801.00000000000;1825.00000000000;1808.00000000000;1810.00000000000;1838.00000000000;1829.00000000000;1817.00000000000;1821.00000000000;1817.00000000000;1832.00000000000;1814.00000000000;1824.00000000000;1829.00000000000;1832.00000000000;1825.00000000000;1838.00000000000;1823.00000000000;1809.00000000000;1794.00000000000;1820.00000000000;1802.00000000000;1821.00000000000;1815.00000000000;1815.00000000000;1809.00000000000;1797.00000000000;1808.00000000000;1798.00000000000;1801.00000000000;1812.00000000000;1807.00000000000;1812.00000000000;1826.00000000000;1819.00000000000;1813.00000000000;1808.00000000000;1776.00000000000;1800.00000000000;1800.00000000000;1787.00000000000;1819.00000000000;1802.00000000000;1824.00000000000;1830.00000000000;1823.00000000000;1813.00000000000;1836.00000000000;1825.00000000000;1822.00000000000;1832.00000000000;1821.00000000000;1811.00000000000;1807.00000000000;1816.00000000000;1821.00000000000;1811.00000000000;1832.00000000000;1840.00000000000;1835.00000000000;1825.00000000000;1823.00000000000;1804.00000000000;1829.00000000000;1838.00000000000;1838.00000000000;1818.00000000000;1831.00000000000
