COMMAND 1 SAMPLE 1
Accel X : 978.000000000000;1018.00000000000;996.000000000000;996.000000000000;997.000000000000;959.000000000000;945.000000000000;965.000000000000;995.000000000000;992.000000000000;983.000000000000;948.000000000000;926.000000000000;956.000000000000;984.000000000000;993.000000000000;964.000000000000;971.000000000000;948.000000000000;976.000000000000;987.000000000000;969.000000000000;969.000000000000;984.000000000000;955.000000000000;986.000000000000;991.000000000000;982.000000000000;975.000000000000;974.000000000000;969.000000000000;963.000000000000;981.000000000000;954.000000000000;996.000000000000;988.000000000000;1007.00000000000;1046.00000000000;951.000000000000;921.000000000000;957.000000000000;956.000000000000;864.000000000000;918.000000000000;844.000000000000;765.000000000000;609.000000000000;729.000000000000;810.000000000000;864.000000000000;745.000000000000;808.000000000000;983.000000000000;984.000000000000;1131.00000000000;1244.00000000000;1141.00000000000;1292.00000000000;1264.00000000000;1553.00000000000;1586.00000000000;1664.00000000000;1658.00000000000;1748.00000000000;1726.00000000000;1967.00000000000;2055.00000000000;2093.00000000000;2277.00000000000;2157.00000000000;2042.00000000000;2088.00000000000;2050.00000000000;1957.00000000000;1861.00000000000;1879.00000000000;1862.00000000000;1921.00000000000;1885.00000000000;1922.00000000000;1961.00000000000;1960.00000000000;1914.00000000000;1877.00000000000;1827.00000000000;1821.00000000000;1823.00000000000;1746.00000000000;1646.00000000000;1593.00000000000;1560.00000000000;1486.00000000000;1242.00000000000;1093.00000000000;948.000000000000;1204.00000000000;989.000000000000;627.000000000000;615.000000000000;669.000000000000;652.000000000000;328.000000000000;265.000000000000;405.000000000000;718.000000000000;847.000000000000;821.000000000000;875.000000000000;877.000000000000;906.000000000000;963.000000000000;1006.00000000000;968.000000000000;1008.00000000000;1042.00000000000;1014.00000000000;1030.00000000000;1019.00000000000;1048.00000000000;1047.00000000000;1057.00000000000;1040.00000000000;1036.00000000000;1038.00000000000;1005.00000000000;1031.00000000000;1024.00000000000;1021.00000000000;1024.00000000000;1002.00000000000;992.000000000000;1016.00000000000;1007.00000000000;1001.00000000000;1008.00000000000;997.000000000000;992.000000000000;979.000000000000;1018.00000000000;1032.00000000000;1012.00000000000;1003.00000000000;997.000000000000;999.000000000000;1029.00000000000;990.000000000000;1015.00000000000;989.000000000000;979.000000000000;1010.00000000000
Accel Y : 2173.00000000000;2182.00000000000;2184.00000000000;2170.00000000000;2174.00000000000;2205.00000000000;2176.00000000000;2194.00000000000;2199.00000000000;2220.00000000000;2195.00000000000;2205.00000000000;2205.00000000000;2200.00000000000;2210.00000000000;2205.00000000000;2207.00000000000;2220.00000000000;2213.00000000000;2230.00000000000;2209.00000000000;2219.00000000000;2244.00000000000;2207.00000000000;2225.00000000000;2220.00000000000;2222.00000000000;2215.00000000000;2219.00000000000;2218.00000000000;2232.00000000000;2221.00000000000;2214.00000000000;2201.00000000000;2192.00000000000;2206.00000000000;2211.00000000000;2186.00000000000;2204.00000000000;2158.00000000000;2180.00000000000;2175.00000000000;2122.00000000000;2115.00000000000;2083.00000000000;2058.00000000000;2053.00000000000;2052.00000000000;2026.00000000000;1916.00000000000;1896.00000000000;1901.00000000000;1863.00000000000;1868.00000000000;1860.00000000000;1767.00000000000;1682.00000000000;1725.00000000000;1767.00000000000;1786.00000000000;1719.00000000000;1763.00000000000;1786.00000000000;1801.00000000000;1737.00000000000;1682.00000000000;1708.00000000000;1701.00000000000;1661.00000000000;1540.00000000000;1544.00000000000;1511.00000000000;1443.00000000000;1476.00000000000;1445.00000000000;1476.00000000000;1524.00000000000;1501.00000000000;1456.00000000000;1450.00000000000;1463.00000000000;1489.00000000000;1490.00000000000;1523.00000000000;1569.00000000000;1523.00000000000;1562.00000000000;1608.00000000000;1660.00000000000;1610.00000000000;1598.00000000000;1603.00000000000;1644.00000000000;1729.00000000000;1826.00000000000;1837.00000000000;2131.00000000000;2248.00000000000;2280.00000000000;2334.00000000000;2380.00000000000;2406.00000000000;2343.00000000000;2262.00000000000;2199.00000000000;2218.00000000000;2226.00000000000;2214.00000000000;2211.00000000000;2199.00000000000;2241.00000000000;2228.00000000000;2269.00000000000;2280.00000000000;2270.00000000000;2290.00000000000;2263.00000000000;2259.00000000000;2261.00000000000;2248.00000000000;2243.00000000000;2245.00000000000;2232.00000000000;2231.00000000000;2225.00000000000;2223.00000000000;2204.00000000000;2215.00000000000;2228.00000000000;2205.00000000000;2228.00000000000;2219.00000000000;2204.00000000000;2217.00000000000;2234.00000000000;2214.00000000000;2213.00000000000;2212.00000000000;2195.00000000000;2206.00000000000;2198.00000000000;2207.00000000000;2170.00000000000;2202.00000000000;2202.00000000000;2169.00000000000;2209.00000000000;2182.00000000000;2211.00000000000;2197.00000000000
Accel Z : 1702.00000000000;1682.00000000000;1694.00000000000;1688.00000000000;1707.00000000000;1689.00000000000;1671.00000000000;1672.00000000000;1716.00000000000;1683.00000000000;1690.00000000000;1693.00000000000;1701.00000000000;1681.00000000000;1700.00000000000;1704.00000000000;1696.00000000000;1659.00000000000;1708.00000000000;1694.00000000000;1709.00000000000;1693.00000000000;1711.00000000000;1693.00000000000;1691.00000000000;1689.00000000000;1698.00000000000;1702.00000000000;1693.00000000000;1711.00000000000;1697.00000000000;1675.00000000000;1671.00000000000;1680.00000000000;1687.00000000000;1672.00000000000;1656.00000000000;1667.00000000000;1631.00000000000;1617.00000000000;1620.00000000000;1607.00000000000;1507.00000000000;1461.00000000000;1433.00000000000;1286.00000000000;1207.00000000000;1165.00000000000;1144.00000000000;1079.00000000000;903.000000000000;925.000000000000;951.000000000000;803.000000000000;749.000000000000;747.000000000000;710.000000000000;811.000000000000;864.000000000000;955.000000000000;1005.00000000000;1190.00000000000;1395.00000000000;1711.00000000000;1878.00000000000;2261.00000000000;2490.00000000000;2420.00000000000;2327.00000000000;2124.00000000000;1966.00000000000;2007.00000000000;2037.00000000000;2061.00000000000;2075.00000000000;2059.00000000000;2135.00000000000;2176.00000000000;2174.00000000000;2131.00000000000;2105.00000000000;1948.00000000000;1889.00000000000;1860.00000000000;1802.00000000000;1756.00000000000;1571.00000000000;1489.00000000000;1430.00000000000;1440.00000000000;1341.00000000000;1231.00000000000;1055.00000000000;969.000000000000;1056.00000000000;1323.00000000000;1474.00000000000;1686.00000000000;1809.00000000000;1900.00000000000;1980.00000000000;2002.00000000000;1994.00000000000;1985.00000000000;2037.00000000000;2072.00000000000;2068.00000000000;2024.00000000000;2030.00000000000;2038.00000000000;2054.00000000000;2048.00000000000;1998.00000000000;1981.00000000000;1988.00000000000;1986.00000000000;1949.00000000000;1943.00000000000;1916.00000000000;1945.00000000000;1917.00000000000;1934.00000000000;1931.00000000000;1923.00000000000;1912.00000000000;1907.00000000000;1906.00000000000;1937.00000000000;1939.00000000000;1918.00000000000;1914.00000000000;1919.00000000000;1922.00000000000;1926.00000000000;1937.00000000000;1943.00000000000;1938.00000000000;1933.00000000000;1966.00000000000;1934.00000000000;1925.00000000000;1901.00000000000;1927.00000000000;1925.00000000000;1911.00000000000;1942.00000000000;1927.00000000000;1905.00000000000;1922.00000000000;1921.00000000000
Gyro X : 978.000000000000;1018.00000000000;996.000000000000;996.000000000000;997.000000000000;959.000000000000;945.000000000000;965.000000000000;995.000000000000;992.000000000000;983.000000000000;948.000000000000;926.000000000000;956.000000000000;984.000000000000;993.000000000000;964.000000000000;971.000000000000;948.000000000000;976.000000000000;987.000000000000;969.000000000000;969.000000000000;984.000000000000;955.000000000000;986.000000000000;991.000000000000;982.000000000000;975.000000000000;974.000000000000;969.000000000000;963.000000000000;981.000000000000;954.000000000000;996.000000000000;988.000000000000;1007.00000000000;1046.00000000000;951.000000000000;921.000000000000;957.000000000000;956.000000000000;864.000000000000;918.000000000000;844.000000000000;765.000000000000;609.000000000000;729.000000000000;810.000000000000;864.000000000000;745.000000000000;808.000000000000;983.000000000000;984.000000000000;1131.00000000000;1244.00000000000;1141.00000000000;1292.00000000000;1264.00000000000;1553.00000000000;1586.00000000000;1664.00000000000;1658.00000000000;1748.00000000000;1726.00000000000;1967.00000000000;2055.00000000000;2093.00000000000;2277.00000000000;2157.00000000000;2042.00000000000;2088.00000000000;2050.00000000000;1957.00000000000;1861.00000000000;1879.00000000000;1862.00000000000;1921.00000000000;1885.00000000000;1922.00000000000;1961.00000000000;1960.00000000000;1914.00000000000;1877.00000000000;1827.00000000000;1821.00000000000;1823.00000000000;1746.00000000000;1646.00000000000;1593.00000000000;1560.00000000000;1486.00000000000;1242.00000000000;1093.00000000000;948.000000000000;1204.00000000000;989.000000000000;627.000000000000;615.000000000000;669.000000000000;652.000000000000;328.000000000000;265.000000000000;405.000000000000;718.000000000000;847.000000000000;821.000000000000;875.000000000000;877.000000000000;906.000000000000;963.000000000000;1006.00000000000;968.000000000000;1008.00000000000;1042.00000000000;1014.00000000000;1030.00000000000;1019.00000000000;1048.00000000000;1047.00000000000;1057.00000000000;1040.00000000000;1036.00000000000;1038.00000000000;1005.00000000000;1031.00000000000;1024.00000000000;1021.00000000000;1024.00000000000;1002.00000000000;992.000000000000;1016.00000000000;1007.00000000000;1001.00000000000;1008.00000000000;997.000000000000;992.000000000000;979.000000000000;1018.00000000000;1032.00000000000;1012.00000000000;1003.00000000000;997.000000000000;999.000000000000;1029.00000000000;990.000000000000;1015.00000000000;989.000000000000;979.000000000000;1010.00000000000
Gyro Y : 2173.00000000000;2182.00000000000;2184.00000000000;2170.00000000000;2174.00000000000;2205.00000000000;2176.00000000000;2194.00000000000;2199.00000000000;2220.00000000000;2195.00000000000;2205.00000000000;2205.00000000000;2200.00000000000;2210.00000000000;2205.00000000000;2207.00000000000;2220.00000000000;2213.00000000000;2230.00000000000;2209.00000000000;2219.00000000000;2244.00000000000;2207.00000000000;2225.00000000000;2220.00000000000;2222.00000000000;2215.00000000000;2219.00000000000;2218.00000000000;2232.00000000000;2221.00000000000;2214.00000000000;2201.00000000000;2192.00000000000;2206.00000000000;2211.00000000000;2186.00000000000;2204.00000000000;2158.00000000000;2180.00000000000;2175.00000000000;2122.00000000000;2115.00000000000;2083.00000000000;2058.00000000000;2053.00000000000;2052.00000000000;2026.00000000000;1916.00000000000;1896.00000000000;1901.00000000000;1863.00000000000;1868.00000000000;1860.00000000000;1767.00000000000;1682.00000000000;1725.00000000000;1767.00000000000;1786.00000000000;1719.00000000000;1763.00000000000;1786.00000000000;1801.00000000000;1737.00000000000;1682.00000000000;1708.00000000000;1701.00000000000;1661.00000000000;1540.00000000000;1544.00000000000;1511.00000000000;1443.00000000000;1476.00000000000;1445.00000000000;1476.00000000000;1524.00000000000;1501.00000000000;1456.00000000000;1450.00000000000;1463.00000000000;1489.00000000000;1490.00000000000;1523.00000000000;1569.00000000000;1523.00000000000;1562.00000000000;1608.00000000000;1660.00000000000;1610.00000000000;1598.00000000000;1603.00000000000;1644.00000000000;1729.00000000000;1826.00000000000;1837.00000000000;2131.00000000000;2248.00000000000;2280.00000000000;2334.00000000000;2380.00000000000;2406.00000000000;2343.00000000000;2262.00000000000;2199.00000000000;2218.00000000000;2226.00000000000;2214.00000000000;2211.00000000000;2199.00000000000;2241.00000000000;2228.00000000000;2269.00000000000;2280.00000000000;2270.00000000000;2290.00000000000;2263.00000000000;2259.00000000000;2261.00000000000;2248.00000000000;2243.00000000000;2245.00000000000;2232.00000000000;2231.00000000000;2225.00000000000;2223.00000000000;2204.00000000000;2215.00000000000;2228.00000000000;2205.00000000000;2228.00000000000;2219.00000000000;2204.00000000000;2217.00000000000;2234.00000000000;2214.00000000000;2213.00000000000;2212.00000000000;2195.00000000000;2206.00000000000;2198.00000000000;2207.00000000000;2170.00000000000;2202.00000000000;2202.00000000000;2169.00000000000;2209.00000000000;2182.00000000000;2211.00000000000;2197.00000000000
Gyro Z : 1702.00000000000;1682.00000000000;1694.00000000000;1688.00000000000;1707.00000000000;1689.00000000000;1671.00000000000;1672.00000000000;1716.00000000000;1683.00000000000;1690.00000000000;1693.00000000000;1701.00000000000;1681.00000000000;1700.00000000000;1704.00000000000;1696.00000000000;1659.00000000000;1708.00000000000;1694.00000000000;1709.00000000000;1693.00000000000;1711.00000000000;1693.00000000000;1691.00000000000;1689.00000000000;1698.00000000000;1702.00000000000;1693.00000000000;1711.00000000000;1697.00000000000;1675.00000000000;1671.00000000000;1680.00000000000;1687.00000000000;1672.00000000000;1656.00000000000;1667.00000000000;1631.00000000000;1617.00000000000;1620.00000000000;1607.00000000000;1507.00000000000;1461.00000000000;1433.00000000000;1286.00000000000;1207.00000000000;1165.00000000000;1144.00000000000;1079.00000000000;903.000000000000;925.000000000000;951.000000000000;803.000000000000;749.000000000000;747.000000000000;710.000000000000;811.000000000000;864.000000000000;955.000000000000;1005.00000000000;1190.00000000000;1395.00000000000;1711.00000000000;1878.00000000000;2261.00000000000;2490.00000000000;2420.00000000000;2327.00000000000;2124.00000000000;1966.00000000000;2007.00000000000;2037.00000000000;2061.00000000000;2075.00000000000;2059.00000000000;2135.00000000000;2176.00000000000;2174.00000000000;2131.00000000000;2105.00000000000;1948.00000000000;1889.00000000000;1860.00000000000;1802.00000000000;1756.00000000000;1571.00000000000;1489.00000000000;1430.00000000000;1440.00000000000;1341.00000000000;1231.00000000000;1055.00000000000;969.000000000000;1056.00000000000;1323.00000000000;1474.00000000000;1686.00000000000;1809.00000000000;1900.00000000000;1980.00000000000;2002.00000000000;1994.00000000000;1985.00000000000;2037.00000000000;2072.00000000000;2068.00000000000;2024.00000000000;2030.00000000000;2038.00000000000;2054.00000000000;2048.00000000000;1998.00000000000;1981.00000000000;1988.00000000000;1986.00000000000;1949.00000000000;1943.00000000000;1916.00000000000;1945.00000000000;1917.00000000000;1934.00000000000;1931.00000000000;1923.00000000000;1912.00000000000;1907.00000000000;1906.00000000000;1937.00000000000;1939.00000000000;1918.00000000000;1914.00000000000;1919.00000000000;1922.00000000000;1926.00000000000;1937.00000000000;1943.00000000000;1938.00000000000;1933.00000000000;1966.00000000000;1934.00000000000;1925.00000000000;1901.00000000000;1927.00000000000;1925.00000000000;1911.00000000000;1942.00000000000;1927.00000000000;1905.00000000000;1922.00000000000;1921.00000000000
