COMMAND 6 SAMPLE 1
Accel X : 967.000000000000;985.000000000000;963.000000000000;973.000000000000;988.000000000000;966.000000000000;974.000000000000;962.000000000000;979.000000000000;972.000000000000;994.000000000000;973.000000000000;993.000000000000;975.000000000000;971.000000000000;962.000000000000;968.000000000000;978.000000000000;979.000000000000;974.000000000000;960.000000000000;981.000000000000;976.000000000000;983.000000000000;988.000000000000;990.000000000000;969.000000000000;980.000000000000;966.000000000000;961.000000000000;981.000000000000;973.000000000000;967.000000000000;972.000000000000;971.000000000000;953.000000000000;994.000000000000;979.000000000000;964.000000000000;943.000000000000;975.000000000000;997.000000000000;1003.00000000000;1001.00000000000;992.000000000000;976.000000000000;971.000000000000;980.000000000000;1001.00000000000;975.000000000000;947.000000000000;933.000000000000;843.000000000000;613.000000000000;696.000000000000;979.000000000000;1036.00000000000;807.000000000000;1187.00000000000;1605.00000000000;2066.00000000000;1897.00000000000;1563.00000000000;1577.00000000000;1666.00000000000;1865.00000000000;1803.00000000000;1667.00000000000;1810.00000000000;1796.00000000000;1810.00000000000;1804.00000000000;1830.00000000000;1774.00000000000;1820.00000000000;1816.00000000000;1809.00000000000;1820.00000000000;1767.00000000000;1758.00000000000;1797.00000000000;1817.00000000000;1833.00000000000;1852.00000000000;1845.00000000000;1823.00000000000;1778.00000000000;1866.00000000000;1847.00000000000;1770.00000000000;1797.00000000000;1837.00000000000;1834.00000000000;1922.00000000000;1848.00000000000;1862.00000000000;2072.00000000000;2101.00000000000;1977.00000000000;1697.00000000000;1366.00000000000;1058.00000000000;860.000000000000;804.000000000000;716.000000000000;717.000000000000;794.000000000000;939.000000000000;915.000000000000;984.000000000000;967.000000000000;904.000000000000;901.000000000000;950.000000000000;935.000000000000;939.000000000000;961.000000000000;984.000000000000;956.000000000000;954.000000000000;959.000000000000;974.000000000000;1002.00000000000;951.000000000000;955.000000000000;970.000000000000;1001.00000000000;990.000000000000;1037.00000000000;973.000000000000;982.000000000000;978.000000000000;1028.00000000000;1008.00000000000;998.000000000000;998.000000000000;969.000000000000;986.000000000000;992.000000000000;991.000000000000;982.000000000000;999.000000000000;984.000000000000;999.000000000000;1011.00000000000;970.000000000000;971.000000000000;989.000000000000;991.000000000000;982.000000000000
Accel Y : 2181.00000000000;2189.00000000000;2169.00000000000;2182.00000000000;2192.00000000000;2169.00000000000;2196.00000000000;2185.00000000000;2210.00000000000;2183.00000000000;2162.00000000000;2177.00000000000;2177.00000000000;2202.00000000000;2201.00000000000;2213.00000000000;2199.00000000000;2199.00000000000;2205.00000000000;2199.00000000000;2191.00000000000;2196.00000000000;2181.00000000000;2189.00000000000;2177.00000000000;2188.00000000000;2218.00000000000;2203.00000000000;2189.00000000000;2213.00000000000;2209.00000000000;2170.00000000000;2173.00000000000;2183.00000000000;2194.00000000000;2196.00000000000;2195.00000000000;2198.00000000000;2174.00000000000;2179.00000000000;2197.00000000000;2188.00000000000;2200.00000000000;2186.00000000000;2173.00000000000;2178.00000000000;2171.00000000000;2153.00000000000;2151.00000000000;2168.00000000000;2151.00000000000;2164.00000000000;2167.00000000000;2179.00000000000;2207.00000000000;2204.00000000000;2165.00000000000;2190.00000000000;2206.00000000000;2133.00000000000;2131.00000000000;2175.00000000000;2243.00000000000;2253.00000000000;2235.00000000000;2240.00000000000;2278.00000000000;2343.00000000000;2392.00000000000;2353.00000000000;2335.00000000000;2312.00000000000;2348.00000000000;2353.00000000000;2367.00000000000;2341.00000000000;2331.00000000000;2335.00000000000;2327.00000000000;2327.00000000000;2314.00000000000;2322.00000000000;2311.00000000000;2321.00000000000;2323.00000000000;2336.00000000000;2340.00000000000;2341.00000000000;2322.00000000000;2332.00000000000;2310.00000000000;2316.00000000000;2287.00000000000;2301.00000000000;2329.00000000000;2308.00000000000;2250.00000000000;2264.00000000000;2354.00000000000;2394.00000000000;2398.00000000000;2407.00000000000;2384.00000000000;2301.00000000000;2257.00000000000;2250.00000000000;2246.00000000000;2228.00000000000;2194.00000000000;2222.00000000000;2233.00000000000;2219.00000000000;2249.00000000000;2249.00000000000;2268.00000000000;2250.00000000000;2235.00000000000;2260.00000000000;2250.00000000000;2257.00000000000;2251.00000000000;2218.00000000000;2249.00000000000;2251.00000000000;2251.00000000000;2246.00000000000;2262.00000000000;2242.00000000000;2257.00000000000;2259.00000000000;2249.00000000000;2238.00000000000;2249.00000000000;2212.00000000000;2247.00000000000;2217.00000000000;2235.00000000000;2245.00000000000;2243.00000000000;2247.00000000000;2238.00000000000;2207.00000000000;2247.00000000000;2231.00000000000;2227.00000000000;2256.00000000000;2247.00000000000;2250.00000000000;2262.00000000000;2252.00000000000
Accel Z : 1660.00000000000;1666.00000000000;1698.00000000000;1671.00000000000;1667.00000000000;1666.00000000000;1659.00000000000;1661.00000000000;1652.00000000000;1659.00000000000;1669.00000000000;1665.00000000000;1663.00000000000;1648.00000000000;1674.00000000000;1667.00000000000;1654.00000000000;1675.00000000000;1701.00000000000;1678.00000000000;1667.00000000000;1656.00000000000;1660.00000000000;1668.00000000000;1659.00000000000;1625.00000000000;1619.00000000000;1624.00000000000;1654.00000000000;1624.00000000000;1656.00000000000;1671.00000000000;1670.00000000000;1659.00000000000;1651.00000000000;1659.00000000000;1653.00000000000;1630.00000000000;1695.00000000000;1672.00000000000;1651.00000000000;1668.00000000000;1653.00000000000;1658.00000000000;1665.00000000000;1641.00000000000;1630.00000000000;1651.00000000000;1668.00000000000;1655.00000000000;1670.00000000000;1649.00000000000;1655.00000000000;1598.00000000000;1704.00000000000;1802.00000000000;1929.00000000000;1894.00000000000;1933.00000000000;2139.00000000000;2467.00000000000;2549.00000000000;2521.00000000000;2598.00000000000;2584.00000000000;2587.00000000000;2628.00000000000;2726.00000000000;2835.00000000000;2737.00000000000;2649.00000000000;2635.00000000000;2663.00000000000;2714.00000000000;2749.00000000000;2768.00000000000;2704.00000000000;2688.00000000000;2653.00000000000;2657.00000000000;2664.00000000000;2670.00000000000;2643.00000000000;2651.00000000000;2635.00000000000;2662.00000000000;2619.00000000000;2658.00000000000;2642.00000000000;2656.00000000000;2653.00000000000;2651.00000000000;2608.00000000000;2587.00000000000;2577.00000000000;2599.00000000000;2581.00000000000;2651.00000000000;2637.00000000000;2455.00000000000;2185.00000000000;1964.00000000000;1793.00000000000;1810.00000000000;1790.00000000000;1892.00000000000;1951.00000000000;1921.00000000000;1827.00000000000;1777.00000000000;1791.00000000000;1803.00000000000;1815.00000000000;1824.00000000000;1812.00000000000;1818.00000000000;1824.00000000000;1796.00000000000;1777.00000000000;1757.00000000000;1786.00000000000;1751.00000000000;1768.00000000000;1785.00000000000;1757.00000000000;1767.00000000000;1749.00000000000;1740.00000000000;1747.00000000000;1738.00000000000;1754.00000000000;1749.00000000000;1780.00000000000;1736.00000000000;1742.00000000000;1729.00000000000;1767.00000000000;1759.00000000000;1761.00000000000;1739.00000000000;1747.00000000000;1744.00000000000;1750.00000000000;1773.00000000000;1765.00000000000;1754.00000000000;1734.00000000000;1746.00000000000;1756.00000000000;1739.00000000000
Gyro X : 967.000000000000;985.000000000000;963.000000000000;973.000000000000;988.000000000000;966.000000000000;974.000000000000;962.000000000000;979.000000000000;972.000000000000;994.000000000000;973.000000000000;993.000000000000;975.000000000000;971.000000000000;962.000000000000;968.000000000000;978.000000000000;979.000000000000;974.000000000000;960.000000000000;981.000000000000;976.000000000000;983.000000000000;988.000000000000;990.000000000000;969.000000000000;980.000000000000;966.000000000000;961.000000000000;981.000000000000;973.000000000000;967.000000000000;972.000000000000;971.000000000000;953.000000000000;994.000000000000;979.000000000000;964.000000000000;943.000000000000;975.000000000000;997.000000000000;1003.00000000000;1001.00000000000;992.000000000000;976.000000000000;971.000000000000;980.000000000000;1001.00000000000;975.000000000000;947.000000000000;933.000000000000;843.000000000000;613.000000000000;696.000000000000;979.000000000000;1036.00000000000;807.000000000000;1187.00000000000;1605.00000000000;2066.00000000000;1897.00000000000;1563.00000000000;1577.00000000000;1666.00000000000;1865.00000000000;1803.00000000000;1667.00000000000;1810.00000000000;1796.00000000000;1810.00000000000;1804.00000000000;1830.00000000000;1774.00000000000;1820.00000000000;1816.00000000000;1809.00000000000;1820.00000000000;1767.00000000000;1758.00000000000;1797.00000000000;1817.00000000000;1833.00000000000;1852.00000000000;1845.00000000000;1823.00000000000;1778.00000000000;1866.00000000000;1847.00000000000;1770.00000000000;1797.00000000000;1837.00000000000;1834.00000000000;1922.00000000000;1848.00000000000;1862.00000000000;2072.00000000000;2101.00000000000;1977.00000000000;1697.00000000000;1366.00000000000;1058.00000000000;860.000000000000;804.000000000000;716.000000000000;717.000000000000;794.000000000000;939.000000000000;915.000000000000;984.000000000000;967.000000000000;904.000000000000;901.000000000000;950.000000000000;935.000000000000;939.000000000000;961.000000000000;984.000000000000;956.000000000000;954.000000000000;959.000000000000;974.000000000000;1002.00000000000;951.000000000000;955.000000000000;970.000000000000;1001.00000000000;990.000000000000;1037.00000000000;973.000000000000;982.000000000000;978.000000000000;1028.00000000000;1008.00000000000;998.000000000000;998.000000000000;969.000000000000;986.000000000000;992.000000000000;991.000000000000;982.000000000000;999.000000000000;984.000000000000;999.000000000000;1011.00000000000;970.000000000000;971.000000000000;989.000000000000;991.000000000000;982.000000000000
Gyro Y : 2181.00000000000;2189.00000000000;2169.00000000000;2182.00000000000;2192.00000000000;2169.00000000000;2196.00000000000;2185.00000000000;2210.00000000000;2183.00000000000;2162.00000000000;2177.00000000000;2177.00000000000;2202.00000000000;2201.00000000000;2213.00000000000;2199.00000000000;2199.00000000000;2205.00000000000;2199.00000000000;2191.00000000000;2196.00000000000;2181.00000000000;2189.00000000000;2177.00000000000;2188.00000000000;2218.00000000000;2203.00000000000;2189.00000000000;2213.00000000000;2209.00000000000;2170.00000000000;2173.00000000000;2183.00000000000;2194.00000000000;2196.00000000000;2195.00000000000;2198.00000000000;2174.00000000000;2179.00000000000;2197.00000000000;2188.00000000000;2200.00000000000;2186.00000000000;2173.00000000000;2178.00000000000;2171.00000000000;2153.00000000000;2151.00000000000;2168.00000000000;2151.00000000000;2164.00000000000;2167.00000000000;2179.00000000000;2207.00000000000;2204.00000000000;2165.00000000000;2190.00000000000;2206.00000000000;2133.00000000000;2131.00000000000;2175.00000000000;2243.00000000000;2253.00000000000;2235.00000000000;2240.00000000000;2278.00000000000;2343.00000000000;2392.00000000000;2353.00000000000;2335.00000000000;2312.00000000000;2348.00000000000;2353.00000000000;2367.00000000000;2341.00000000000;2331.00000000000;2335.00000000000;2327.00000000000;2327.00000000000;2314.00000000000;2322.00000000000;2311.00000000000;2321.00000000000;2323.00000000000;2336.00000000000;2340.00000000000;2341.00000000000;2322.00000000000;2332.00000000000;2310.00000000000;2316.00000000000;2287.00000000000;2301.00000000000;2329.00000000000;2308.00000000000;2250.00000000000;2264.00000000000;2354.00000000000;2394.00000000000;2398.00000000000;2407.00000000000;2384.00000000000;2301.00000000000;2257.00000000000;2250.00000000000;2246.00000000000;2228.00000000000;2194.00000000000;2222.00000000000;2233.00000000000;2219.00000000000;2249.00000000000;2249.00000000000;2268.00000000000;2250.00000000000;2235.00000000000;2260.00000000000;2250.00000000000;2257.00000000000;2251.00000000000;2218.00000000000;2249.00000000000;2251.00000000000;2251.00000000000;2246.00000000000;2262.00000000000;2242.00000000000;2257.00000000000;2259.00000000000;2249.00000000000;2238.00000000000;2249.00000000000;2212.00000000000;2247.00000000000;2217.00000000000;2235.00000000000;2245.00000000000;2243.00000000000;2247.00000000000;2238.00000000000;2207.00000000000;2247.00000000000;2231.00000000000;2227.00000000000;2256.00000000000;2247.00000000000;2250.00000000000;2262.00000000000;2252.00000000000
Gyro Z : 1660.00000000000;1666.00000000000;1698.00000000000;1671.00000000000;1667.00000000000;1666.00000000000;1659.00000000000;1661.00000000000;1652.00000000000;1659.00000000000;1669.00000000000;1665.00000000000;1663.00000000000;1648.00000000000;1674.00000000000;1667.00000000000;1654.00000000000;1675.00000000000;1701.00000000000;1678.00000000000;1667.00000000000;1656.00000000000;1660.00000000000;1668.00000000000;1659.00000000000;1625.00000000000;1619.00000000000;1624.00000000000;1654.00000000000;1624.00000000000;1656.00000000000;1671.00000000000;1670.00000000000;1659.00000000000;1651.00000000000;1659.00000000000;1653.00000000000;1630.00000000000;1695.00000000000;1672.00000000000;1651.00000000000;1668.00000000000;1653.00000000000;1658.00000000000;1665.00000000000;1641.00000000000;1630.00000000000;1651.00000000000;1668.00000000000;1655.00000000000;1670.00000000000;1649.00000000000;1655.00000000000;1598.00000000000;1704.00000000000;1802.00000000000;1929.00000000000;1894.00000000000;1933.00000000000;2139.00000000000;2467.00000000000;2549.00000000000;2521.00000000000;2598.00000000000;2584.00000000000;2587.00000000000;2628.00000000000;2726.00000000000;2835.00000000000;2737.00000000000;2649.00000000000;2635.00000000000;2663.00000000000;2714.00000000000;2749.00000000000;2768.00000000000;2704.00000000000;2688.00000000000;2653.00000000000;2657.00000000000;2664.00000000000;2670.00000000000;2643.00000000000;2651.00000000000;2635.00000000000;2662.00000000000;2619.00000000000;2658.00000000000;2642.00000000000;2656.00000000000;2653.00000000000;2651.00000000000;2608.00000000000;2587.00000000000;2577.00000000000;2599.00000000000;2581.00000000000;2651.00000000000;2637.00000000000;2455.00000000000;2185.00000000000;1964.00000000000;1793.00000000000;1810.00000000000;1790.00000000000;1892.00000000000;1951.00000000000;1921.00000000000;1827.00000000000;1777.00000000000;1791.00000000000;1803.00000000000;1815.00000000000;1824.00000000000;1812.00000000000;1818.00000000000;1824.00000000000;1796.00000000000;1777.00000000000;1757.00000000000;1786.00000000000;1751.00000000000;1768.00000000000;1785.00000000000;1757.00000000000;1767.00000000000;1749.00000000000;1740.00000000000;1747.00000000000;1738.00000000000;1754.00000000000;1749.00000000000;1780.00000000000;1736.00000000000;1742.00000000000;1729.00000000000;1767.00000000000;1759.00000000000;1761.00000000000;1739.00000000000;1747.00000000000;1744.00000000000;1750.00000000000;1773.00000000000;1765.00000000000;1754.00000000000;1734.00000000000;1746.00000000000;1756.00000000000;1739.00000000000
