COMMAND 2 SAMPLE 1
Accel X : 999.000000000000;966.000000000000;989.000000000000;965.000000000000;976.000000000000;964.000000000000;988.000000000000;988.000000000000;986.000000000000;972.000000000000;949.000000000000;967.000000000000;984.000000000000;977.000000000000;970.000000000000;984.000000000000;991.000000000000;977.000000000000;980.000000000000;962.000000000000;962.000000000000;985.000000000000;996.000000000000;982.000000000000;959.000000000000;986.000000000000;974.000000000000;997.000000000000;995.000000000000;994.000000000000;980.000000000000;987.000000000000;980.000000000000;961.000000000000;960.000000000000;953.000000000000;965.000000000000;968.000000000000;986.000000000000;927.000000000000;905.000000000000;864.000000000000;890.000000000000;815.000000000000;785.000000000000;788.000000000000;804.000000000000;892.000000000000;919.000000000000;791.000000000000;795.000000000000;869.000000000000;868.000000000000;959.000000000000;966.000000000000;1139.00000000000;1090.00000000000;1112.00000000000;1167.00000000000;1244.00000000000;1287.00000000000;1336.00000000000;1342.00000000000;1386.00000000000;1391.00000000000;1503.00000000000;1473.00000000000;1461.00000000000;1494.00000000000;1526.00000000000;1495.00000000000;1451.00000000000;1399.00000000000;1337.00000000000;1289.00000000000;1222.00000000000;1184.00000000000;1204.00000000000;1205.00000000000;1188.00000000000;1083.00000000000;988.000000000000;1041.00000000000;1112.00000000000;1154.00000000000;1158.00000000000;975.000000000000;912.000000000000;939.000000000000;1101.00000000000;924.000000000000;816.000000000000;815.000000000000;954.000000000000;1066.00000000000;940.000000000000;835.000000000000;856.000000000000;991.000000000000;1017.00000000000;944.000000000000;816.000000000000;760.000000000000;913.000000000000;1120.00000000000;1159.00000000000;1010.00000000000;936.000000000000;853.000000000000;881.000000000000;924.000000000000;949.000000000000;1003.00000000000;951.000000000000;933.000000000000;914.000000000000;896.000000000000;976.000000000000;985.000000000000;982.000000000000;996.000000000000;1010.00000000000;988.000000000000;1011.00000000000;975.000000000000;985.000000000000;943.000000000000;955.000000000000;970.000000000000;990.000000000000;983.000000000000;952.000000000000;951.000000000000;969.000000000000;985.000000000000;999.000000000000;1008.00000000000;991.000000000000;994.000000000000;968.000000000000;979.000000000000;1005.00000000000;991.000000000000;974.000000000000;962.000000000000;979.000000000000;987.000000000000;993.000000000000;981.000000000000;971.000000000000
Accel Y : 2160.00000000000;2152.00000000000;2192.00000000000;2147.00000000000;2170.00000000000;2162.00000000000;2197.00000000000;2167.00000000000;2158.00000000000;2169.00000000000;2173.00000000000;2167.00000000000;2168.00000000000;2170.00000000000;2164.00000000000;2169.00000000000;2164.00000000000;2166.00000000000;2178.00000000000;2164.00000000000;2154.00000000000;2158.00000000000;2142.00000000000;2171.00000000000;2177.00000000000;2175.00000000000;2163.00000000000;2177.00000000000;2154.00000000000;2163.00000000000;2183.00000000000;2163.00000000000;2157.00000000000;2182.00000000000;2170.00000000000;2176.00000000000;2168.00000000000;2188.00000000000;2242.00000000000;2254.00000000000;2260.00000000000;2287.00000000000;2355.00000000000;2422.00000000000;2430.00000000000;2431.00000000000;2445.00000000000;2540.00000000000;2570.00000000000;2602.00000000000;2608.00000000000;2656.00000000000;2700.00000000000;2717.00000000000;2795.00000000000;2802.00000000000;2796.00000000000;2760.00000000000;2722.00000000000;2734.00000000000;2743.00000000000;2689.00000000000;2652.00000000000;2561.00000000000;2485.00000000000;2358.00000000000;2282.00000000000;2203.00000000000;2133.00000000000;2116.00000000000;2131.00000000000;2101.00000000000;2138.00000000000;2169.00000000000;2194.00000000000;2255.00000000000;2224.00000000000;2209.00000000000;2262.00000000000;2353.00000000000;2382.00000000000;2400.00000000000;2323.00000000000;2376.00000000000;2441.00000000000;2532.00000000000;2641.00000000000;2709.00000000000;2647.00000000000;2630.00000000000;2779.00000000000;2796.00000000000;2677.00000000000;2529.00000000000;2578.00000000000;2673.00000000000;2568.00000000000;2489.00000000000;2384.00000000000;2271.00000000000;2257.00000000000;2286.00000000000;2307.00000000000;2223.00000000000;2148.00000000000;2103.00000000000;2134.00000000000;2197.00000000000;2157.00000000000;2141.00000000000;2159.00000000000;2143.00000000000;2184.00000000000;2163.00000000000;2178.00000000000;2204.00000000000;2203.00000000000;2187.00000000000;2186.00000000000;2197.00000000000;2185.00000000000;2163.00000000000;2172.00000000000;2186.00000000000;2178.00000000000;2157.00000000000;2155.00000000000;2177.00000000000;2169.00000000000;2191.00000000000;2204.00000000000;2195.00000000000;2189.00000000000;2171.00000000000;2176.00000000000;2174.00000000000;2180.00000000000;2174.00000000000;2157.00000000000;2192.00000000000;2172.00000000000;2191.00000000000;2186.00000000000;2187.00000000000;2213.00000000000;2186.00000000000;2207.00000000000;2213.00000000000;2182.00000000000;2170.00000000000
Accel Z : 1738.00000000000;1731.00000000000;1733.00000000000;1747.00000000000;1742.00000000000;1731.00000000000;1722.00000000000;1740.00000000000;1752.00000000000;1761.00000000000;1723.00000000000;1758.00000000000;1738.00000000000;1729.00000000000;1730.00000000000;1763.00000000000;1744.00000000000;1756.00000000000;1764.00000000000;1742.00000000000;1762.00000000000;1733.00000000000;1764.00000000000;1728.00000000000;1757.00000000000;1734.00000000000;1741.00000000000;1750.00000000000;1769.00000000000;1769.00000000000;1749.00000000000;1733.00000000000;1804.00000000000;1812.00000000000;1872.00000000000;1891.00000000000;1910.00000000000;1985.00000000000;2081.00000000000;2151.00000000000;2144.00000000000;2120.00000000000;2225.00000000000;2262.00000000000;2277.00000000000;2237.00000000000;2193.00000000000;2148.00000000000;2036.00000000000;1975.00000000000;1896.00000000000;1898.00000000000;1796.00000000000;1676.00000000000;1510.00000000000;1473.00000000000;1395.00000000000;1320.00000000000;1227.00000000000;1156.00000000000;997.000000000000;991.000000000000;898.000000000000;810.000000000000;732.000000000000;740.000000000000;725.000000000000;672.000000000000;673.000000000000;671.000000000000;675.000000000000;719.000000000000;687.000000000000;685.000000000000;695.000000000000;826.000000000000;900.000000000000;897.000000000000;903.000000000000;958.000000000000;1070.00000000000;1201.00000000000;1107.00000000000;1075.00000000000;1187.00000000000;1285.00000000000;1481.00000000000;1503.00000000000;1490.00000000000;1481.00000000000;1781.00000000000;1975.00000000000;1937.00000000000;1792.00000000000;1943.00000000000;2097.00000000000;2115.00000000000;2043.00000000000;2038.00000000000;1944.00000000000;1995.00000000000;1964.00000000000;1931.00000000000;1934.00000000000;1856.00000000000;1909.00000000000;1817.00000000000;1813.00000000000;1828.00000000000;1770.00000000000;1773.00000000000;1734.00000000000;1743.00000000000;1738.00000000000;1707.00000000000;1722.00000000000;1655.00000000000;1702.00000000000;1701.00000000000;1702.00000000000;1668.00000000000;1661.00000000000;1685.00000000000;1692.00000000000;1689.00000000000;1682.00000000000;1720.00000000000;1687.00000000000;1705.00000000000;1714.00000000000;1716.00000000000;1709.00000000000;1709.00000000000;1729.00000000000;1717.00000000000;1730.00000000000;1731.00000000000;1704.00000000000;1728.00000000000;1755.00000000000;1736.00000000000;1716.00000000000;1710.00000000000;1717.00000000000;1739.00000000000;1728.00000000000;1731.00000000000;1692.00000000000;1728.00000000000;1715.00000000000
Gyro X : 999.000000000000;966.000000000000;989.000000000000;965.000000000000;976.000000000000;964.000000000000;988.000000000000;988.000000000000;986.000000000000;972.000000000000;949.000000000000;967.000000000000;984.000000000000;977.000000000000;970.000000000000;984.000000000000;991.000000000000;977.000000000000;980.000000000000;962.000000000000;962.000000000000;985.000000000000;996.000000000000;982.000000000000;959.000000000000;986.000000000000;974.000000000000;997.000000000000;995.000000000000;994.000000000000;980.000000000000;987.000000000000;980.000000000000;961.000000000000;960.000000000000;953.000000000000;965.000000000000;968.000000000000;986.000000000000;927.000000000000;905.000000000000;864.000000000000;890.000000000000;815.000000000000;785.000000000000;788.000000000000;804.000000000000;892.000000000000;919.000000000000;791.000000000000;795.000000000000;869.000000000000;868.000000000000;959.000000000000;966.000000000000;1139.00000000000;1090.00000000000;1112.00000000000;1167.00000000000;1244.00000000000;1287.00000000000;1336.00000000000;1342.00000000000;1386.00000000000;1391.00000000000;1503.00000000000;1473.00000000000;1461.00000000000;1494.00000000000;1526.00000000000;1495.00000000000;1451.00000000000;1399.00000000000;1337.00000000000;1289.00000000000;1222.00000000000;1184.00000000000;1204.00000000000;1205.00000000000;1188.00000000000;1083.00000000000;988.000000000000;1041.00000000000;1112.00000000000;1154.00000000000;1158.00000000000;975.000000000000;912.000000000000;939.000000000000;1101.00000000000;924.000000000000;816.000000000000;815.000000000000;954.000000000000;1066.00000000000;940.000000000000;835.000000000000;856.000000000000;991.000000000000;1017.00000000000;944.000000000000;816.000000000000;760.000000000000;913.000000000000;1120.00000000000;1159.00000000000;1010.00000000000;936.000000000000;853.000000000000;881.000000000000;924.000000000000;949.000000000000;1003.00000000000;951.000000000000;933.000000000000;914.000000000000;896.000000000000;976.000000000000;985.000000000000;982.000000000000;996.000000000000;1010.00000000000;988.000000000000;1011.00000000000;975.000000000000;985.000000000000;943.000000000000;955.000000000000;970.000000000000;990.000000000000;983.000000000000;952.000000000000;951.000000000000;969.000000000000;985.000000000000;999.000000000000;1008.00000000000;991.000000000000;994.000000000000;968.000000000000;979.000000000000;1005.00000000000;991.000000000000;974.000000000000;962.000000000000;979.000000000000;987.000000000000;993.000000000000;981.000000000000;971.000000000000
Gyro Y : 2160.00000000000;2152.00000000000;2192.00000000000;2147.00000000000;2170.00000000000;2162.00000000000;2197.00000000000;2167.00000000000;2158.00000000000;2169.00000000000;2173.00000000000;2167.00000000000;2168.00000000000;2170.00000000000;2164.00000000000;2169.00000000000;2164.00000000000;2166.00000000000;2178.00000000000;2164.00000000000;2154.00000000000;2158.00000000000;2142.00000000000;2171.00000000000;2177.00000000000;2175.00000000000;2163.00000000000;2177.00000000000;2154.00000000000;2163.00000000000;2183.00000000000;2163.00000000000;2157.00000000000;2182.00000000000;2170.00000000000;2176.00000000000;2168.00000000000;2188.00000000000;2242.00000000000;2254.00000000000;2260.00000000000;2287.00000000000;2355.00000000000;2422.00000000000;2430.00000000000;2431.00000000000;2445.00000000000;2540.00000000000;2570.00000000000;2602.00000000000;2608.00000000000;2656.00000000000;2700.00000000000;2717.00000000000;2795.00000000000;2802.00000000000;2796.00000000000;2760.00000000000;2722.00000000000;2734.00000000000;2743.00000000000;2689.00000000000;2652.00000000000;2561.00000000000;2485.00000000000;2358.00000000000;2282.00000000000;2203.00000000000;2133.00000000000;2116.00000000000;2131.00000000000;2101.00000000000;2138.00000000000;2169.00000000000;2194.00000000000;2255.00000000000;2224.00000000000;2209.00000000000;2262.00000000000;2353.00000000000;2382.00000000000;2400.00000000000;2323.00000000000;2376.00000000000;2441.00000000000;2532.00000000000;2641.00000000000;2709.00000000000;2647.00000000000;2630.00000000000;2779.00000000000;2796.00000000000;2677.00000000000;2529.00000000000;2578.00000000000;2673.00000000000;2568.00000000000;2489.00000000000;2384.00000000000;2271.00000000000;2257.00000000000;2286.00000000000;2307.00000000000;2223.00000000000;2148.00000000000;2103.00000000000;2134.00000000000;2197.00000000000;2157.00000000000;2141.00000000000;2159.00000000000;2143.00000000000;2184.00000000000;2163.00000000000;2178.00000000000;2204.00000000000;2203.00000000000;2187.00000000000;2186.00000000000;2197.00000000000;2185.00000000000;2163.00000000000;2172.00000000000;2186.00000000000;2178.00000000000;2157.00000000000;2155.00000000000;2177.00000000000;2169.00000000000;2191.00000000000;2204.00000000000;2195.00000000000;2189.00000000000;2171.00000000000;2176.00000000000;2174.00000000000;2180.00000000000;2174.00000000000;2157.00000000000;2192.00000000000;2172.00000000000;2191.00000000000;2186.00000000000;2187.00000000000;2213.00000000000;2186.00000000000;2207.00000000000;2213.00000000000;2182.00000000000;2170.00000000000
Gyro Z : 1738.00000000000;1731.00000000000;1733.00000000000;1747.00000000000;1742.00000000000;1731.00000000000;1722.00000000000;1740.00000000000;1752.00000000000;1761.00000000000;1723.00000000000;1758.00000000000;1738.00000000000;1729.00000000000;1730.00000000000;1763.00000000000;1744.00000000000;1756.00000000000;1764.00000000000;1742.00000000000;1762.00000000000;1733.00000000000;1764.00000000000;1728.00000000000;1757.00000000000;1734.00000000000;1741.00000000000;1750.00000000000;1769.00000000000;1769.00000000000;1749.00000000000;1733.00000000000;1804.00000000000;1812.00000000000;1872.00000000000;1891.00000000000;1910.00000000000;1985.00000000000;2081.00000000000;2151.00000000000;2144.00000000000;2120.00000000000;2225.00000000000;2262.00000000000;2277.00000000000;2237.00000000000;2193.00000000000;2148.00000000000;2036.00000000000;1975.00000000000;1896.00000000000;1898.00000000000;1796.00000000000;1676.00000000000;1510.00000000000;1473.00000000000;1395.00000000000;1320.00000000000;1227.00000000000;1156.00000000000;997.000000000000;991.000000000000;898.000000000000;810.000000000000;732.000000000000;740.000000000000;725.000000000000;672.000000000000;673.000000000000;671.000000000000;675.000000000000;719.000000000000;687.000000000000;685.000000000000;695.000000000000;826.000000000000;900.000000000000;897.000000000000;903.000000000000;958.000000000000;1070.00000000000;1201.00000000000;1107.00000000000;1075.00000000000;1187.00000000000;1285.00000000000;1481.00000000000;1503.00000000000;1490.00000000000;1481.00000000000;1781.00000000000;1975.00000000000;1937.00000000000;1792.00000000000;1943.00000000000;2097.00000000000;2115.00000000000;2043.00000000000;2038.00000000000;1944.00000000000;1995.00000000000;1964.00000000000;1931.00000000000;1934.00000000000;1856.00000000000;1909.00000000000;1817.00000000000;1813.00000000000;1828.00000000000;1770.00000000000;1773.00000000000;1734.00000000000;1743.00000000000;1738.00000000000;1707.00000000000;1722.00000000000;1655.00000000000;1702.00000000000;1701.00000000000;1702.00000000000;1668.00000000000;1661.00000000000;1685.00000000000;1692.00000000000;1689.00000000000;1682.00000000000;1720.00000000000;1687.00000000000;1705.00000000000;1714.00000000000;1716.00000000000;1709.00000000000;1709.00000000000;1729.00000000000;1717.00000000000;1730.00000000000;1731.00000000000;1704.00000000000;1728.00000000000;1755.00000000000;1736.00000000000;1716.00000000000;1710.00000000000;1717.00000000000;1739.00000000000;1728.00000000000;1731.00000000000;1692.00000000000;1728.00000000000;1715.00000000000
