COMMAND 2 SAMPLE 1
Accel X : 961.000000000000;975.000000000000;970.000000000000;974.000000000000;1001.00000000000;994.000000000000;967.000000000000;953.000000000000;959.000000000000;963.000000000000;957.000000000000;1002.00000000000;958.000000000000;983.000000000000;955.000000000000;951.000000000000;962.000000000000;975.000000000000;942.000000000000;976.000000000000;977.000000000000;970.000000000000;982.000000000000;966.000000000000;987.000000000000;981.000000000000;1004.00000000000;970.000000000000;967.000000000000;951.000000000000;955.000000000000;964.000000000000;962.000000000000;1000.00000000000;1015.00000000000;945.000000000000;937.000000000000;938.000000000000;970.000000000000;1019.00000000000;1023.00000000000;995.000000000000;963.000000000000;950.000000000000;989.000000000000;991.000000000000;924.000000000000;920.000000000000;917.000000000000;879.000000000000;980.000000000000;979.000000000000;912.000000000000;948.000000000000;874.000000000000;1004.00000000000;1085.00000000000;1080.00000000000;1082.00000000000;1228.00000000000;1085.00000000000;1145.00000000000;1206.00000000000;1182.00000000000;1178.00000000000;1182.00000000000;1195.00000000000;1218.00000000000;1218.00000000000;1207.00000000000;1242.00000000000;1205.00000000000;1182.00000000000;1107.00000000000;1121.00000000000;1137.00000000000;1143.00000000000;1078.00000000000;1098.00000000000;1052.00000000000;1080.00000000000;1066.00000000000;1028.00000000000;1043.00000000000;1054.00000000000;1073.00000000000;1114.00000000000;1114.00000000000;1093.00000000000;1095.00000000000;1092.00000000000;1089.00000000000;1136.00000000000;1116.00000000000;1085.00000000000;1006.00000000000;1035.00000000000;1054.00000000000;1112.00000000000;1170.00000000000;1036.00000000000;1004.00000000000;973.000000000000;1057.00000000000;1081.00000000000;1064.00000000000;935.000000000000;870.000000000000;936.000000000000;1193.00000000000;1122.00000000000;934.000000000000;814.000000000000;859.000000000000;1033.00000000000;1262.00000000000;1186.00000000000;990.000000000000;839.000000000000;860.000000000000;1002.00000000000;1004.00000000000;960.000000000000;870.000000000000;850.000000000000;903.000000000000;930.000000000000;1018.00000000000;1013.00000000000;980.000000000000;933.000000000000;952.000000000000;944.000000000000;1006.00000000000;992.000000000000;965.000000000000;970.000000000000;966.000000000000;975.000000000000;1020.00000000000;1021.00000000000;990.000000000000;973.000000000000;998.000000000000;984.000000000000;988.000000000000;974.000000000000;961.000000000000;981.000000000000;972.000000000000
Accel Y : 2201.00000000000;2231.00000000000;2245.00000000000;2231.00000000000;2207.00000000000;2212.00000000000;2215.00000000000;2199.00000000000;2215.00000000000;2227.00000000000;2221.00000000000;2226.00000000000;2200.00000000000;2217.00000000000;2234.00000000000;2207.00000000000;2219.00000000000;2230.00000000000;2222.00000000000;2248.00000000000;2219.00000000000;2256.00000000000;2216.00000000000;2238.00000000000;2241.00000000000;2229.00000000000;2229.00000000000;2219.00000000000;2234.00000000000;2238.00000000000;2221.00000000000;2212.00000000000;2209.00000000000;2228.00000000000;2234.00000000000;2263.00000000000;2249.00000000000;2254.00000000000;2274.00000000000;2266.00000000000;2291.00000000000;2312.00000000000;2335.00000000000;2323.00000000000;2341.00000000000;2413.00000000000;2401.00000000000;2466.00000000000;2413.00000000000;2444.00000000000;2460.00000000000;2493.00000000000;2535.00000000000;2533.00000000000;2533.00000000000;2534.00000000000;2495.00000000000;2514.00000000000;2563.00000000000;2569.00000000000;2555.00000000000;2513.00000000000;2491.00000000000;2530.00000000000;2485.00000000000;2424.00000000000;2399.00000000000;2356.00000000000;2336.00000000000;2301.00000000000;2296.00000000000;2278.00000000000;2238.00000000000;2245.00000000000;2244.00000000000;2272.00000000000;2261.00000000000;2272.00000000000;2266.00000000000;2269.00000000000;2261.00000000000;2289.00000000000;2282.00000000000;2301.00000000000;2311.00000000000;2318.00000000000;2293.00000000000;2307.00000000000;2336.00000000000;2367.00000000000;2425.00000000000;2470.00000000000;2464.00000000000;2467.00000000000;2514.00000000000;2555.00000000000;2628.00000000000;2592.00000000000;2544.00000000000;2528.00000000000;2671.00000000000;2675.00000000000;2634.00000000000;2578.00000000000;2617.00000000000;2651.00000000000;2673.00000000000;2626.00000000000;2437.00000000000;2463.00000000000;2538.00000000000;2543.00000000000;2504.00000000000;2368.00000000000;2264.00000000000;2277.00000000000;2247.00000000000;2307.00000000000;2299.00000000000;2266.00000000000;2243.00000000000;2260.00000000000;2256.00000000000;2229.00000000000;2234.00000000000;2236.00000000000;2202.00000000000;2203.00000000000;2208.00000000000;2211.00000000000;2195.00000000000;2237.00000000000;2195.00000000000;2221.00000000000;2188.00000000000;2232.00000000000;2223.00000000000;2224.00000000000;2225.00000000000;2225.00000000000;2219.00000000000;2210.00000000000;2217.00000000000;2232.00000000000;2217.00000000000;2230.00000000000;2217.00000000000;2231.00000000000;2209.00000000000;2193.00000000000
Accel Z : 1773.00000000000;1769.00000000000;1782.00000000000;1788.00000000000;1787.00000000000;1800.00000000000;1770.00000000000;1767.00000000000;1776.00000000000;1779.00000000000;1804.00000000000;1786.00000000000;1776.00000000000;1786.00000000000;1795.00000000000;1792.00000000000;1816.00000000000;1802.00000000000;1776.00000000000;1790.00000000000;1783.00000000000;1801.00000000000;1809.00000000000;1809.00000000000;1828.00000000000;1809.00000000000;1846.00000000000;1850.00000000000;1837.00000000000;1854.00000000000;1869.00000000000;1891.00000000000;1870.00000000000;1905.00000000000;1948.00000000000;1935.00000000000;1938.00000000000;2007.00000000000;2027.00000000000;2026.00000000000;2029.00000000000;2051.00000000000;2015.00000000000;2011.00000000000;2040.00000000000;2012.00000000000;1920.00000000000;1972.00000000000;1934.00000000000;1787.00000000000;1785.00000000000;1744.00000000000;1662.00000000000;1626.00000000000;1559.00000000000;1552.00000000000;1485.00000000000;1408.00000000000;1359.00000000000;1344.00000000000;1319.00000000000;1255.00000000000;1206.00000000000;1125.00000000000;1156.00000000000;1132.00000000000;1096.00000000000;1088.00000000000;1076.00000000000;1066.00000000000;1097.00000000000;1094.00000000000;1070.00000000000;1068.00000000000;1028.00000000000;1059.00000000000;1096.00000000000;1080.00000000000;1071.00000000000;1088.00000000000;1105.00000000000;1105.00000000000;1105.00000000000;1103.00000000000;1111.00000000000;1150.00000000000;1112.00000000000;1145.00000000000;1106.00000000000;1143.00000000000;1148.00000000000;1196.00000000000;1193.00000000000;1245.00000000000;1241.00000000000;1278.00000000000;1388.00000000000;1397.00000000000;1316.00000000000;1281.00000000000;1536.00000000000;1639.00000000000;1692.00000000000;1642.00000000000;1657.00000000000;1889.00000000000;2060.00000000000;2085.00000000000;1946.00000000000;2001.00000000000;2154.00000000000;2283.00000000000;2219.00000000000;2121.00000000000;2044.00000000000;2069.00000000000;2073.00000000000;2085.00000000000;2003.00000000000;1935.00000000000;1895.00000000000;1938.00000000000;1856.00000000000;1816.00000000000;1800.00000000000;1809.00000000000;1815.00000000000;1793.00000000000;1730.00000000000;1758.00000000000;1729.00000000000;1732.00000000000;1739.00000000000;1740.00000000000;1719.00000000000;1735.00000000000;1721.00000000000;1738.00000000000;1694.00000000000;1753.00000000000;1750.00000000000;1768.00000000000;1733.00000000000;1735.00000000000;1720.00000000000;1705.00000000000;1733.00000000000;1741.00000000000;1726.00000000000;1717.00000000000
Gyro X : 961.000000000000;975.000000000000;970.000000000000;974.000000000000;1001.00000000000;994.000000000000;967.000000000000;953.000000000000;959.000000000000;963.000000000000;957.000000000000;1002.00000000000;958.000000000000;983.000000000000;955.000000000000;951.000000000000;962.000000000000;975.000000000000;942.000000000000;976.000000000000;977.000000000000;970.000000000000;982.000000000000;966.000000000000;987.000000000000;981.000000000000;1004.00000000000;970.000000000000;967.000000000000;951.000000000000;955.000000000000;964.000000000000;962.000000000000;1000.00000000000;1015.00000000000;945.000000000000;937.000000000000;938.000000000000;970.000000000000;1019.00000000000;1023.00000000000;995.000000000000;963.000000000000;950.000000000000;989.000000000000;991.000000000000;924.000000000000;920.000000000000;917.000000000000;879.000000000000;980.000000000000;979.000000000000;912.000000000000;948.000000000000;874.000000000000;1004.00000000000;1085.00000000000;1080.00000000000;1082.00000000000;1228.00000000000;1085.00000000000;1145.00000000000;1206.00000000000;1182.00000000000;1178.00000000000;1182.00000000000;1195.00000000000;1218.00000000000;1218.00000000000;1207.00000000000;1242.00000000000;1205.00000000000;1182.00000000000;1107.00000000000;1121.00000000000;1137.00000000000;1143.00000000000;1078.00000000000;1098.00000000000;1052.00000000000;1080.00000000000;1066.00000000000;1028.00000000000;1043.00000000000;1054.00000000000;1073.00000000000;1114.00000000000;1114.00000000000;1093.00000000000;1095.00000000000;1092.00000000000;1089.00000000000;1136.00000000000;1116.00000000000;1085.00000000000;1006.00000000000;1035.00000000000;1054.00000000000;1112.00000000000;1170.00000000000;1036.00000000000;1004.00000000000;973.000000000000;1057.00000000000;1081.00000000000;1064.00000000000;935.000000000000;870.000000000000;936.000000000000;1193.00000000000;1122.00000000000;934.000000000000;814.000000000000;859.000000000000;1033.00000000000;1262.00000000000;1186.00000000000;990.000000000000;839.000000000000;860.000000000000;1002.00000000000;1004.00000000000;960.000000000000;870.000000000000;850.000000000000;903.000000000000;930.000000000000;1018.00000000000;1013.00000000000;980.000000000000;933.000000000000;952.000000000000;944.000000000000;1006.00000000000;992.000000000000;965.000000000000;970.000000000000;966.000000000000;975.000000000000;1020.00000000000;1021.00000000000;990.000000000000;973.000000000000;998.000000000000;984.000000000000;988.000000000000;974.000000000000;961.000000000000;981.000000000000;972.000000000000
Gyro Y : 2201.00000000000;2231.00000000000;2245.00000000000;2231.00000000000;2207.00000000000;2212.00000000000;2215.00000000000;2199.00000000000;2215.00000000000;2227.00000000000;2221.00000000000;2226.00000000000;2200.00000000000;2217.00000000000;2234.00000000000;2207.00000000000;2219.00000000000;2230.00000000000;2222.00000000000;2248.00000000000;2219.00000000000;2256.00000000000;2216.00000000000;2238.00000000000;2241.00000000000;2229.00000000000;2229.00000000000;2219.00000000000;2234.00000000000;2238.00000000000;2221.00000000000;2212.00000000000;2209.00000000000;2228.00000000000;2234.00000000000;2263.00000000000;2249.00000000000;2254.00000000000;2274.00000000000;2266.00000000000;2291.00000000000;2312.00000000000;2335.00000000000;2323.00000000000;2341.00000000000;2413.00000000000;2401.00000000000;2466.00000000000;2413.00000000000;2444.00000000000;2460.00000000000;2493.00000000000;2535.00000000000;2533.00000000000;2533.00000000000;2534.00000000000;2495.00000000000;2514.00000000000;2563.00000000000;2569.00000000000;2555.00000000000;2513.00000000000;2491.00000000000;2530.00000000000;2485.00000000000;2424.00000000000;2399.00000000000;2356.00000000000;2336.00000000000;2301.00000000000;2296.00000000000;2278.00000000000;2238.00000000000;2245.00000000000;2244.00000000000;2272.00000000000;2261.00000000000;2272.00000000000;2266.00000000000;2269.00000000000;2261.00000000000;2289.00000000000;2282.00000000000;2301.00000000000;2311.00000000000;2318.00000000000;2293.00000000000;2307.00000000000;2336.00000000000;2367.00000000000;2425.00000000000;2470.00000000000;2464.00000000000;2467.00000000000;2514.00000000000;2555.00000000000;2628.00000000000;2592.00000000000;2544.00000000000;2528.00000000000;2671.00000000000;2675.00000000000;2634.00000000000;2578.00000000000;2617.00000000000;2651.00000000000;2673.00000000000;2626.00000000000;2437.00000000000;2463.00000000000;2538.00000000000;2543.00000000000;2504.00000000000;2368.00000000000;2264.00000000000;2277.00000000000;2247.00000000000;2307.00000000000;2299.00000000000;2266.00000000000;2243.00000000000;2260.00000000000;2256.00000000000;2229.00000000000;2234.00000000000;2236.00000000000;2202.00000000000;2203.00000000000;2208.00000000000;2211.00000000000;2195.00000000000;2237.00000000000;2195.00000000000;2221.00000000000;2188.00000000000;2232.00000000000;2223.00000000000;2224.00000000000;2225.00000000000;2225.00000000000;2219.00000000000;2210.00000000000;2217.00000000000;2232.00000000000;2217.00000000000;2230.00000000000;2217.00000000000;2231.00000000000;2209.00000000000;2193.00000000000
Gyro Z : 1773.00000000000;1769.00000000000;1782.00000000000;1788.00000000000;1787.00000000000;1800.00000000000;1770.00000000000;1767.00000000000;1776.00000000000;1779.00000000000;1804.00000000000;1786.00000000000;1776.00000000000;1786.00000000000;1795.00000000000;1792.00000000000;1816.00000000000;1802.00000000000;1776.00000000000;1790.00000000000;1783.00000000000;1801.00000000000;1809.00000000000;1809.00000000000;1828.00000000000;1809.00000000000;1846.00000000000;1850.00000000000;1837.00000000000;1854.00000000000;1869.00000000000;1891.00000000000;1870.00000000000;1905.00000000000;1948.00000000000;1935.00000000000;1938.00000000000;2007.00000000000;2027.00000000000;2026.00000000000;2029.00000000000;2051.00000000000;2015.00000000000;2011.00000000000;2040.00000000000;2012.00000000000;1920.00000000000;1972.00000000000;1934.00000000000;1787.00000000000;1785.00000000000;1744.00000000000;1662.00000000000;1626.00000000000;1559.00000000000;1552.00000000000;1485.00000000000;1408.00000000000;1359.00000000000;1344.00000000000;1319.00000000000;1255.00000000000;1206.00000000000;1125.00000000000;1156.00000000000;1132.00000000000;1096.00000000000;1088.00000000000;1076.00000000000;1066.00000000000;1097.00000000000;1094.00000000000;1070.00000000000;1068.00000000000;1028.00000000000;1059.00000000000;1096.00000000000;1080.00000000000;1071.00000000000;1088.00000000000;1105.00000000000;1105.00000000000;1105.00000000000;1103.00000000000;1111.00000000000;1150.00000000000;1112.00000000000;1145.00000000000;1106.00000000000;1143.00000000000;1148.00000000000;1196.00000000000;1193.00000000000;1245.00000000000;1241.00000000000;1278.00000000000;1388.00000000000;1397.00000000000;1316.00000000000;1281.00000000000;1536.00000000000;1639.00000000000;1692.00000000000;1642.00000000000;1657.00000000000;1889.00000000000;2060.00000000000;2085.00000000000;1946.00000000000;2001.00000000000;2154.00000000000;2283.00000000000;2219.00000000000;2121.00000000000;2044.00000000000;2069.00000000000;2073.00000000000;2085.00000000000;2003.00000000000;1935.00000000000;1895.00000000000;1938.00000000000;1856.00000000000;1816.00000000000;1800.00000000000;1809.00000000000;1815.00000000000;1793.00000000000;1730.00000000000;1758.00000000000;1729.00000000000;1732.00000000000;1739.00000000000;1740.00000000000;1719.00000000000;1735.00000000000;1721.00000000000;1738.00000000000;1694.00000000000;1753.00000000000;1750.00000000000;1768.00000000000;1733.00000000000;1735.00000000000;1720.00000000000;1705.00000000000;1733.00000000000;1741.00000000000;1726.00000000000;1717.00000000000
