COMMAND 6 SAMPLE 1
Accel X : 996.000000000000;991.000000000000;982.000000000000;975.000000000000;975.000000000000;989.000000000000;999.000000000000;989.000000000000;983.000000000000;991.000000000000;971.000000000000;976.000000000000;987.000000000000;997.000000000000;992.000000000000;984.000000000000;960.000000000000;1008.00000000000;952.000000000000;981.000000000000;991.000000000000;1005.00000000000;999.000000000000;980.000000000000;950.000000000000;964.000000000000;984.000000000000;956.000000000000;992.000000000000;983.000000000000;980.000000000000;966.000000000000;963.000000000000;981.000000000000;961.000000000000;979.000000000000;1005.00000000000;959.000000000000;976.000000000000;966.000000000000;1013.00000000000;993.000000000000;995.000000000000;989.000000000000;977.000000000000;966.000000000000;959.000000000000;936.000000000000;938.000000000000;938.000000000000;900.000000000000;852.000000000000;725.000000000000;670.000000000000;769.000000000000;859.000000000000;1308.00000000000;1775.00000000000;2042.00000000000;1886.00000000000;1713.00000000000;1696.00000000000;1824.00000000000;1884.00000000000;1931.00000000000;1966.00000000000;1892.00000000000;2040.00000000000;2100.00000000000;2054.00000000000;2098.00000000000;2125.00000000000;2010.00000000000;2034.00000000000;2024.00000000000;2045.00000000000;2035.00000000000;2005.00000000000;1998.00000000000;2108.00000000000;1949.00000000000;1829.00000000000;1959.00000000000;2091.00000000000;2235.00000000000;2356.00000000000;2199.00000000000;1873.00000000000;1638.00000000000;1555.00000000000;1386.00000000000;862.000000000000;554.000000000000;602.000000000000;801.000000000000;840.000000000000;942.000000000000;946.000000000000;850.000000000000;885.000000000000;912.000000000000;938.000000000000;953.000000000000;944.000000000000;914.000000000000;925.000000000000;999.000000000000;1000.00000000000;976.000000000000;977.000000000000;977.000000000000;1012.00000000000;983.000000000000;970.000000000000;984.000000000000;1002.00000000000;985.000000000000;995.000000000000;1002.00000000000;967.000000000000;988.000000000000;998.000000000000;968.000000000000;973.000000000000;971.000000000000;981.000000000000;964.000000000000;972.000000000000;980.000000000000;1011.00000000000;997.000000000000;948.000000000000;971.000000000000;1002.00000000000;976.000000000000;1004.00000000000;997.000000000000;1008.00000000000;990.000000000000;986.000000000000;1015.00000000000;980.000000000000;989.000000000000;951.000000000000;994.000000000000;984.000000000000;974.000000000000;994.000000000000;991.000000000000;983.000000000000
Accel Y : 2195.00000000000;2198.00000000000;2201.00000000000;2187.00000000000;2210.00000000000;2229.00000000000;2222.00000000000;2212.00000000000;2217.00000000000;2206.00000000000;2233.00000000000;2209.00000000000;2224.00000000000;2213.00000000000;2218.00000000000;2225.00000000000;2236.00000000000;2217.00000000000;2230.00000000000;2224.00000000000;2231.00000000000;2235.00000000000;2231.00000000000;2218.00000000000;2211.00000000000;2221.00000000000;2217.00000000000;2202.00000000000;2184.00000000000;2214.00000000000;2209.00000000000;2207.00000000000;2202.00000000000;2223.00000000000;2216.00000000000;2222.00000000000;2206.00000000000;2216.00000000000;2195.00000000000;2224.00000000000;2211.00000000000;2227.00000000000;2212.00000000000;2205.00000000000;2198.00000000000;2221.00000000000;2205.00000000000;2194.00000000000;2217.00000000000;2201.00000000000;2200.00000000000;2208.00000000000;2263.00000000000;2275.00000000000;2233.00000000000;2217.00000000000;2050.00000000000;1999.00000000000;2073.00000000000;2151.00000000000;2232.00000000000;2306.00000000000;2317.00000000000;2289.00000000000;2345.00000000000;2391.00000000000;2443.00000000000;2488.00000000000;2467.00000000000;2560.00000000000;2569.00000000000;2533.00000000000;2549.00000000000;2529.00000000000;2535.00000000000;2519.00000000000;2557.00000000000;2535.00000000000;2483.00000000000;2517.00000000000;2509.00000000000;2482.00000000000;2474.00000000000;2399.00000000000;2374.00000000000;2422.00000000000;2447.00000000000;2444.00000000000;2392.00000000000;2373.00000000000;2377.00000000000;2335.00000000000;2191.00000000000;2168.00000000000;2214.00000000000;2203.00000000000;2160.00000000000;2101.00000000000;2149.00000000000;2166.00000000000;2167.00000000000;2188.00000000000;2172.00000000000;2197.00000000000;2207.00000000000;2203.00000000000;2197.00000000000;2187.00000000000;2210.00000000000;2187.00000000000;2197.00000000000;2213.00000000000;2208.00000000000;2218.00000000000;2208.00000000000;2194.00000000000;2210.00000000000;2213.00000000000;2227.00000000000;2204.00000000000;2211.00000000000;2209.00000000000;2229.00000000000;2202.00000000000;2219.00000000000;2204.00000000000;2228.00000000000;2204.00000000000;2211.00000000000;2216.00000000000;2211.00000000000;2237.00000000000;2178.00000000000;2212.00000000000;2229.00000000000;2240.00000000000;2213.00000000000;2197.00000000000;2193.00000000000;2221.00000000000;2200.00000000000;2206.00000000000;2196.00000000000;2196.00000000000;2205.00000000000;2196.00000000000;2209.00000000000;2215.00000000000;2203.00000000000;2214.00000000000
Accel Z : 1630.00000000000;1632.00000000000;1657.00000000000;1635.00000000000;1643.00000000000;1649.00000000000;1654.00000000000;1625.00000000000;1644.00000000000;1635.00000000000;1648.00000000000;1652.00000000000;1638.00000000000;1651.00000000000;1657.00000000000;1631.00000000000;1632.00000000000;1625.00000000000;1633.00000000000;1657.00000000000;1629.00000000000;1637.00000000000;1647.00000000000;1644.00000000000;1642.00000000000;1656.00000000000;1630.00000000000;1655.00000000000;1653.00000000000;1652.00000000000;1667.00000000000;1674.00000000000;1654.00000000000;1639.00000000000;1672.00000000000;1643.00000000000;1674.00000000000;1655.00000000000;1663.00000000000;1669.00000000000;1669.00000000000;1663.00000000000;1674.00000000000;1679.00000000000;1640.00000000000;1675.00000000000;1696.00000000000;1700.00000000000;1695.00000000000;1711.00000000000;1700.00000000000;1715.00000000000;1732.00000000000;1821.00000000000;1790.00000000000;1819.00000000000;1893.00000000000;2161.00000000000;2449.00000000000;2464.00000000000;2519.00000000000;2589.00000000000;2644.00000000000;2580.00000000000;2639.00000000000;2693.00000000000;2708.00000000000;2714.00000000000;2668.00000000000;2736.00000000000;2759.00000000000;2763.00000000000;2716.00000000000;2703.00000000000;2684.00000000000;2682.00000000000;2730.00000000000;2678.00000000000;2624.00000000000;2623.00000000000;2615.00000000000;2622.00000000000;2668.00000000000;2635.00000000000;2567.00000000000;2607.00000000000;2600.00000000000;2466.00000000000;2257.00000000000;2031.00000000000;1778.00000000000;1572.00000000000;1593.00000000000;1838.00000000000;2002.00000000000;1837.00000000000;1715.00000000000;1630.00000000000;1638.00000000000;1734.00000000000;1737.00000000000;1687.00000000000;1673.00000000000;1670.00000000000;1666.00000000000;1664.00000000000;1670.00000000000;1659.00000000000;1633.00000000000;1628.00000000000;1619.00000000000;1645.00000000000;1617.00000000000;1608.00000000000;1615.00000000000;1635.00000000000;1621.00000000000;1651.00000000000;1625.00000000000;1634.00000000000;1631.00000000000;1637.00000000000;1648.00000000000;1635.00000000000;1657.00000000000;1648.00000000000;1661.00000000000;1678.00000000000;1643.00000000000;1670.00000000000;1671.00000000000;1629.00000000000;1649.00000000000;1661.00000000000;1623.00000000000;1630.00000000000;1653.00000000000;1665.00000000000;1661.00000000000;1627.00000000000;1646.00000000000;1655.00000000000;1633.00000000000;1629.00000000000;1646.00000000000;1648.00000000000;1647.00000000000;1649.00000000000;1648.00000000000;1628.00000000000
Gyro X : 996.000000000000;991.000000000000;982.000000000000;975.000000000000;975.000000000000;989.000000000000;999.000000000000;989.000000000000;983.000000000000;991.000000000000;971.000000000000;976.000000000000;987.000000000000;997.000000000000;992.000000000000;984.000000000000;960.000000000000;1008.00000000000;952.000000000000;981.000000000000;991.000000000000;1005.00000000000;999.000000000000;980.000000000000;950.000000000000;964.000000000000;984.000000000000;956.000000000000;992.000000000000;983.000000000000;980.000000000000;966.000000000000;963.000000000000;981.000000000000;961.000000000000;979.000000000000;1005.00000000000;959.000000000000;976.000000000000;966.000000000000;1013.00000000000;993.000000000000;995.000000000000;989.000000000000;977.000000000000;966.000000000000;959.000000000000;936.000000000000;938.000000000000;938.000000000000;900.000000000000;852.000000000000;725.000000000000;670.000000000000;769.000000000000;859.000000000000;1308.00000000000;1775.00000000000;2042.00000000000;1886.00000000000;1713.00000000000;1696.00000000000;1824.00000000000;1884.00000000000;1931.00000000000;1966.00000000000;1892.00000000000;2040.00000000000;2100.00000000000;2054.00000000000;2098.00000000000;2125.00000000000;2010.00000000000;2034.00000000000;2024.00000000000;2045.00000000000;2035.00000000000;2005.00000000000;1998.00000000000;2108.00000000000;1949.00000000000;1829.00000000000;1959.00000000000;2091.00000000000;2235.00000000000;2356.00000000000;2199.00000000000;1873.00000000000;1638.00000000000;1555.00000000000;1386.00000000000;862.000000000000;554.000000000000;602.000000000000;801.000000000000;840.000000000000;942.000000000000;946.000000000000;850.000000000000;885.000000000000;912.000000000000;938.000000000000;953.000000000000;944.000000000000;914.000000000000;925.000000000000;999.000000000000;1000.00000000000;976.000000000000;977.000000000000;977.000000000000;1012.00000000000;983.000000000000;970.000000000000;984.000000000000;1002.00000000000;985.000000000000;995.000000000000;1002.00000000000;967.000000000000;988.000000000000;998.000000000000;968.000000000000;973.000000000000;971.000000000000;981.000000000000;964.000000000000;972.000000000000;980.000000000000;1011.00000000000;997.000000000000;948.000000000000;971.000000000000;1002.00000000000;976.000000000000;1004.00000000000;997.000000000000;1008.00000000000;990.000000000000;986.000000000000;1015.00000000000;980.000000000000;989.000000000000;951.000000000000;994.000000000000;984.000000000000;974.000000000000;994.000000000000;991.000000000000;983.000000000000
Gyro Y : 2195.00000000000;2198.00000000000;2201.00000000000;2187.00000000000;2210.00000000000;2229.00000000000;2222.00000000000;2212.00000000000;2217.00000000000;2206.00000000000;2233.00000000000;2209.00000000000;2224.00000000000;2213.00000000000;2218.00000000000;2225.00000000000;2236.00000000000;2217.00000000000;2230.00000000000;2224.00000000000;2231.00000000000;2235.00000000000;2231.00000000000;2218.00000000000;2211.00000000000;2221.00000000000;2217.00000000000;2202.00000000000;2184.00000000000;2214.00000000000;2209.00000000000;2207.00000000000;2202.00000000000;2223.00000000000;2216.00000000000;2222.00000000000;2206.00000000000;2216.00000000000;2195.00000000000;2224.00000000000;2211.00000000000;2227.00000000000;2212.00000000000;2205.00000000000;2198.00000000000;2221.00000000000;2205.00000000000;2194.00000000000;2217.00000000000;2201.00000000000;2200.00000000000;2208.00000000000;2263.00000000000;2275.00000000000;2233.00000000000;2217.00000000000;2050.00000000000;1999.00000000000;2073.00000000000;2151.00000000000;2232.00000000000;2306.00000000000;2317.00000000000;2289.00000000000;2345.00000000000;2391.00000000000;2443.00000000000;2488.00000000000;2467.00000000000;2560.00000000000;2569.00000000000;2533.00000000000;2549.00000000000;2529.00000000000;2535.00000000000;2519.00000000000;2557.00000000000;2535.00000000000;2483.00000000000;2517.00000000000;2509.00000000000;2482.00000000000;2474.00000000000;2399.00000000000;2374.00000000000;2422.00000000000;2447.00000000000;2444.00000000000;2392.00000000000;2373.00000000000;2377.00000000000;2335.00000000000;2191.00000000000;2168.00000000000;2214.00000000000;2203.00000000000;2160.00000000000;2101.00000000000;2149.00000000000;2166.00000000000;2167.00000000000;2188.00000000000;2172.00000000000;2197.00000000000;2207.00000000000;2203.00000000000;2197.00000000000;2187.00000000000;2210.00000000000;2187.00000000000;2197.00000000000;2213.00000000000;2208.00000000000;2218.00000000000;2208.00000000000;2194.00000000000;2210.00000000000;2213.00000000000;2227.00000000000;2204.00000000000;2211.00000000000;2209.00000000000;2229.00000000000;2202.00000000000;2219.00000000000;2204.00000000000;2228.00000000000;2204.00000000000;2211.00000000000;2216.00000000000;2211.00000000000;2237.00000000000;2178.00000000000;2212.00000000000;2229.00000000000;2240.00000000000;2213.00000000000;2197.00000000000;2193.00000000000;2221.00000000000;2200.00000000000;2206.00000000000;2196.00000000000;2196.00000000000;2205.00000000000;2196.00000000000;2209.00000000000;2215.00000000000;2203.00000000000;2214.00000000000
Gyro Z : 1630.00000000000;1632.00000000000;1657.00000000000;1635.00000000000;1643.00000000000;1649.00000000000;1654.00000000000;1625.00000000000;1644.00000000000;1635.00000000000;1648.00000000000;1652.00000000000;1638.00000000000;1651.00000000000;1657.00000000000;1631.00000000000;1632.00000000000;1625.00000000000;1633.00000000000;1657.00000000000;1629.00000000000;1637.00000000000;1647.00000000000;1644.00000000000;1642.00000000000;1656.00000000000;1630.00000000000;1655.00000000000;1653.00000000000;1652.00000000000;1667.00000000000;1674.00000000000;1654.00000000000;1639.00000000000;1672.00000000000;1643.00000000000;1674.00000000000;1655.00000000000;1663.00000000000;1669.00000000000;1669.00000000000;1663.00000000000;1674.00000000000;1679.00000000000;1640.00000000000;1675.00000000000;1696.00000000000;1700.00000000000;1695.00000000000;1711.00000000000;1700.00000000000;1715.00000000000;1732.00000000000;1821.00000000000;1790.00000000000;1819.00000000000;1893.00000000000;2161.00000000000;2449.00000000000;2464.00000000000;2519.00000000000;2589.00000000000;2644.00000000000;2580.00000000000;2639.00000000000;2693.00000000000;2708.00000000000;2714.00000000000;2668.00000000000;2736.00000000000;2759.00000000000;2763.00000000000;2716.00000000000;2703.00000000000;2684.00000000000;2682.00000000000;2730.00000000000;2678.00000000000;2624.00000000000;2623.00000000000;2615.00000000000;2622.00000000000;2668.00000000000;2635.00000000000;2567.00000000000;2607.00000000000;2600.00000000000;2466.00000000000;2257.00000000000;2031.00000000000;1778.00000000000;1572.00000000000;1593.00000000000;1838.00000000000;2002.00000000000;1837.00000000000;1715.00000000000;1630.00000000000;1638.00000000000;1734.00000000000;1737.00000000000;1687.00000000000;1673.00000000000;1670.00000000000;1666.00000000000;1664.00000000000;1670.00000000000;1659.00000000000;1633.00000000000;1628.00000000000;1619.00000000000;1645.00000000000;1617.00000000000;1608.00000000000;1615.00000000000;1635.00000000000;1621.00000000000;1651.00000000000;1625.00000000000;1634.00000000000;1631.00000000000;1637.00000000000;1648.00000000000;1635.00000000000;1657.00000000000;1648.00000000000;1661.00000000000;1678.00000000000;1643.00000000000;1670.00000000000;1671.00000000000;1629.00000000000;1649.00000000000;1661.00000000000;1623.00000000000;1630.00000000000;1653.00000000000;1665.00000000000;1661.00000000000;1627.00000000000;1646.00000000000;1655.00000000000;1633.00000000000;1629.00000000000;1646.00000000000;1648.00000000000;1647.00000000000;1649.00000000000;1648.00000000000;1628.00000000000
