COMMAND 5 SAMPLE 1
Accel X : 952.000000000000;972.000000000000;1049.00000000000;1062.00000000000;1048.00000000000;1020.00000000000;1012.00000000000;972.000000000000;974.000000000000;956.000000000000;944.000000000000;955.000000000000;930.000000000000;934.000000000000;953.000000000000;1024.00000000000;1078.00000000000;1076.00000000000;1051.00000000000;1040.00000000000;1009.00000000000;990.000000000000;966.000000000000;947.000000000000;866.000000000000;851.000000000000;893.000000000000;999.000000000000;1116.00000000000;1131.00000000000;1082.00000000000;1094.00000000000;1026.00000000000;918.000000000000;903.000000000000;932.000000000000;922.000000000000;912.000000000000;918.000000000000;929.000000000000;1071.00000000000;1093.00000000000;1070.00000000000;1073.00000000000;948.000000000000;869.000000000000;902.000000000000;929.000000000000;1000.00000000000;1007.00000000000;1013.00000000000;990.000000000000;990.000000000000;960.000000000000;974.000000000000;979.000000000000;963.000000000000;999.000000000000;981.000000000000;1011.00000000000;955.000000000000;959.000000000000;994.000000000000;970.000000000000;973.000000000000;979.000000000000;1032.00000000000;1036.00000000000;1044.00000000000;1005.00000000000;951.000000000000;1055.00000000000;1074.00000000000;1134.00000000000;1147.00000000000;1060.00000000000;847.000000000000;817.000000000000;862.000000000000;847.000000000000;998.000000000000;1003.00000000000;1004.00000000000;1029.00000000000;1044.00000000000;1047.00000000000;1014.00000000000;985.000000000000;1000.00000000000;979.000000000000;1042.00000000000;1005.00000000000;948.000000000000;876.000000000000;796.000000000000;753.000000000000;819.000000000000;903.000000000000;1046.00000000000;1088.00000000000;1151.00000000000;1174.00000000000;1211.00000000000;1240.00000000000;1190.00000000000;1101.00000000000;1166.00000000000;1065.00000000000;968.000000000000;819.000000000000;848.000000000000;1104.00000000000;1033.00000000000;981.000000000000;949.000000000000;930.000000000000;927.000000000000;1018.00000000000;1059.00000000000;982.000000000000;915.000000000000;964.000000000000;1020.00000000000;964.000000000000;963.000000000000;938.000000000000;961.000000000000;1004.00000000000;1019.00000000000;996.000000000000;991.000000000000;995.000000000000;1006.00000000000;988.000000000000;988.000000000000;1005.00000000000;990.000000000000;1014.00000000000;1011.00000000000;1033.00000000000;1033.00000000000;1013.00000000000;1012.00000000000;1051.00000000000;1010.00000000000;1013.00000000000;1021.00000000000;1034.00000000000;1026.00000000000;1062.00000000000
Accel Y : 2249.00000000000;2234.00000000000;2224.00000000000;2236.00000000000;2218.00000000000;2232.00000000000;2215.00000000000;2226.00000000000;2222.00000000000;2249.00000000000;2239.00000000000;2227.00000000000;2251.00000000000;2245.00000000000;2219.00000000000;2217.00000000000;2208.00000000000;2232.00000000000;2219.00000000000;2238.00000000000;2237.00000000000;2255.00000000000;2260.00000000000;2258.00000000000;2273.00000000000;2247.00000000000;2268.00000000000;2235.00000000000;2219.00000000000;2236.00000000000;2238.00000000000;2197.00000000000;2257.00000000000;2246.00000000000;2242.00000000000;2255.00000000000;2230.00000000000;2236.00000000000;2250.00000000000;2218.00000000000;2223.00000000000;2230.00000000000;2198.00000000000;2242.00000000000;2225.00000000000;2251.00000000000;2255.00000000000;2236.00000000000;2240.00000000000;2203.00000000000;2188.00000000000;2240.00000000000;2227.00000000000;2237.00000000000;2251.00000000000;2238.00000000000;2228.00000000000;2223.00000000000;2226.00000000000;2200.00000000000;2251.00000000000;2231.00000000000;2234.00000000000;2236.00000000000;2243.00000000000;2204.00000000000;2224.00000000000;2233.00000000000;2225.00000000000;2225.00000000000;2224.00000000000;2251.00000000000;2251.00000000000;2234.00000000000;2219.00000000000;2215.00000000000;2254.00000000000;2273.00000000000;2278.00000000000;2250.00000000000;2224.00000000000;2250.00000000000;2226.00000000000;2227.00000000000;2234.00000000000;2257.00000000000;2258.00000000000;2252.00000000000;2244.00000000000;2241.00000000000;2236.00000000000;2250.00000000000;2244.00000000000;2281.00000000000;2281.00000000000;2273.00000000000;2243.00000000000;2189.00000000000;2176.00000000000;2146.00000000000;2161.00000000000;2159.00000000000;2141.00000000000;2165.00000000000;2173.00000000000;2245.00000000000;2252.00000000000;2277.00000000000;2301.00000000000;2277.00000000000;2312.00000000000;2311.00000000000;2318.00000000000;2312.00000000000;2329.00000000000;2339.00000000000;2355.00000000000;2368.00000000000;2371.00000000000;2365.00000000000;2408.00000000000;2443.00000000000;2415.00000000000;2410.00000000000;2464.00000000000;2471.00000000000;2458.00000000000;2462.00000000000;2457.00000000000;2463.00000000000;2463.00000000000;2461.00000000000;2476.00000000000;2508.00000000000;2448.00000000000;2472.00000000000;2458.00000000000;2470.00000000000;2470.00000000000;2464.00000000000;2461.00000000000;2470.00000000000;2466.00000000000;2480.00000000000;2479.00000000000;2454.00000000000;2450.00000000000;2444.00000000000;2463.00000000000;2435.00000000000
Accel Z : 1750.00000000000;1768.00000000000;1787.00000000000;1793.00000000000;1772.00000000000;1790.00000000000;1834.00000000000;1796.00000000000;1804.00000000000;1758.00000000000;1725.00000000000;1769.00000000000;1784.00000000000;1807.00000000000;1820.00000000000;1841.00000000000;1880.00000000000;1881.00000000000;1872.00000000000;1868.00000000000;1856.00000000000;1837.00000000000;1810.00000000000;1787.00000000000;1747.00000000000;1792.00000000000;1833.00000000000;1868.00000000000;1896.00000000000;1933.00000000000;1870.00000000000;1871.00000000000;1879.00000000000;1858.00000000000;1807.00000000000;1737.00000000000;1730.00000000000;1752.00000000000;1735.00000000000;1743.00000000000;1815.00000000000;1827.00000000000;1804.00000000000;1814.00000000000;1852.00000000000;1842.00000000000;1813.00000000000;1793.00000000000;1758.00000000000;1773.00000000000;1791.00000000000;1786.00000000000;1807.00000000000;1825.00000000000;1839.00000000000;1820.00000000000;1823.00000000000;1815.00000000000;1822.00000000000;1851.00000000000;1849.00000000000;1856.00000000000;1867.00000000000;1881.00000000000;1881.00000000000;1902.00000000000;1886.00000000000;1907.00000000000;1919.00000000000;1899.00000000000;1899.00000000000;1950.00000000000;1918.00000000000;1919.00000000000;1862.00000000000;1795.00000000000;1724.00000000000;1745.00000000000;1721.00000000000;1655.00000000000;1680.00000000000;1724.00000000000;1763.00000000000;1830.00000000000;1873.00000000000;1862.00000000000;1880.00000000000;1857.00000000000;1859.00000000000;1819.00000000000;1831.00000000000;1824.00000000000;1807.00000000000;1806.00000000000;1819.00000000000;1810.00000000000;1797.00000000000;1799.00000000000;1827.00000000000;1891.00000000000;1874.00000000000;1868.00000000000;1901.00000000000;1883.00000000000;1919.00000000000;1890.00000000000;1885.00000000000;1859.00000000000;1814.00000000000;1777.00000000000;1792.00000000000;1874.00000000000;1790.00000000000;1724.00000000000;1778.00000000000;1755.00000000000;1771.00000000000;1775.00000000000;1756.00000000000;1740.00000000000;1769.00000000000;1803.00000000000;1752.00000000000;1732.00000000000;1747.00000000000;1746.00000000000;1754.00000000000;1802.00000000000;1765.00000000000;1734.00000000000;1739.00000000000;1753.00000000000;1745.00000000000;1763.00000000000;1744.00000000000;1733.00000000000;1744.00000000000;1773.00000000000;1754.00000000000;1742.00000000000;1746.00000000000;1748.00000000000;1773.00000000000;1758.00000000000;1747.00000000000;1754.00000000000;1751.00000000000;1752.00000000000;1740.00000000000;1743.00000000000
Gyro X : 952.000000000000;972.000000000000;1049.00000000000;1062.00000000000;1048.00000000000;1020.00000000000;1012.00000000000;972.000000000000;974.000000000000;956.000000000000;944.000000000000;955.000000000000;930.000000000000;934.000000000000;953.000000000000;1024.00000000000;1078.00000000000;1076.00000000000;1051.00000000000;1040.00000000000;1009.00000000000;990.000000000000;966.000000000000;947.000000000000;866.000000000000;851.000000000000;893.000000000000;999.000000000000;1116.00000000000;1131.00000000000;1082.00000000000;1094.00000000000;1026.00000000000;918.000000000000;903.000000000000;932.000000000000;922.000000000000;912.000000000000;918.000000000000;929.000000000000;1071.00000000000;1093.00000000000;1070.00000000000;1073.00000000000;948.000000000000;869.000000000000;902.000000000000;929.000000000000;1000.00000000000;1007.00000000000;1013.00000000000;990.000000000000;990.000000000000;960.000000000000;974.000000000000;979.000000000000;963.000000000000;999.000000000000;981.000000000000;1011.00000000000;955.000000000000;959.000000000000;994.000000000000;970.000000000000;973.000000000000;979.000000000000;1032.00000000000;1036.00000000000;1044.00000000000;1005.00000000000;951.000000000000;1055.00000000000;1074.00000000000;1134.00000000000;1147.00000000000;1060.00000000000;847.000000000000;817.000000000000;862.000000000000;847.000000000000;998.000000000000;1003.00000000000;1004.00000000000;1029.00000000000;1044.00000000000;1047.00000000000;1014.00000000000;985.000000000000;1000.00000000000;979.000000000000;1042.00000000000;1005.00000000000;948.000000000000;876.000000000000;796.000000000000;753.000000000000;819.000000000000;903.000000000000;1046.00000000000;1088.00000000000;1151.00000000000;1174.00000000000;1211.00000000000;1240.00000000000;1190.00000000000;1101.00000000000;1166.00000000000;1065.00000000000;968.000000000000;819.000000000000;848.000000000000;1104.00000000000;1033.00000000000;981.000000000000;949.000000000000;930.000000000000;927.000000000000;1018.00000000000;1059.00000000000;982.000000000000;915.000000000000;964.000000000000;1020.00000000000;964.000000000000;963.000000000000;938.000000000000;961.000000000000;1004.00000000000;1019.00000000000;996.000000000000;991.000000000000;995.000000000000;1006.00000000000;988.000000000000;988.000000000000;1005.00000000000;990.000000000000;1014.00000000000;1011.00000000000;1033.00000000000;1033.00000000000;1013.00000000000;1012.00000000000;1051.00000000000;1010.00000000000;1013.00000000000;1021.00000000000;1034.00000000000;1026.00000000000;1062.00000000000
Gyro Y : 2249.00000000000;2234.00000000000;2224.00000000000;2236.00000000000;2218.00000000000;2232.00000000000;2215.00000000000;2226.00000000000;2222.00000000000;2249.00000000000;2239.00000000000;2227.00000000000;2251.00000000000;2245.00000000000;2219.00000000000;2217.00000000000;2208.00000000000;2232.00000000000;2219.00000000000;2238.00000000000;2237.00000000000;2255.00000000000;2260.00000000000;2258.00000000000;2273.00000000000;2247.00000000000;2268.00000000000;2235.00000000000;2219.00000000000;2236.00000000000;2238.00000000000;2197.00000000000;2257.00000000000;2246.00000000000;2242.00000000000;2255.00000000000;2230.00000000000;2236.00000000000;2250.00000000000;2218.00000000000;2223.00000000000;2230.00000000000;2198.00000000000;2242.00000000000;2225.00000000000;2251.00000000000;2255.00000000000;2236.00000000000;2240.00000000000;2203.00000000000;2188.00000000000;2240.00000000000;2227.00000000000;2237.00000000000;2251.00000000000;2238.00000000000;2228.00000000000;2223.00000000000;2226.00000000000;2200.00000000000;2251.00000000000;2231.00000000000;2234.00000000000;2236.00000000000;2243.00000000000;2204.00000000000;2224.00000000000;2233.00000000000;2225.00000000000;2225.00000000000;2224.00000000000;2251.00000000000;2251.00000000000;2234.00000000000;2219.00000000000;2215.00000000000;2254.00000000000;2273.00000000000;2278.00000000000;2250.00000000000;2224.00000000000;2250.00000000000;2226.00000000000;2227.00000000000;2234.00000000000;2257.00000000000;2258.00000000000;2252.00000000000;2244.00000000000;2241.00000000000;2236.00000000000;2250.00000000000;2244.00000000000;2281.00000000000;2281.00000000000;2273.00000000000;2243.00000000000;2189.00000000000;2176.00000000000;2146.00000000000;2161.00000000000;2159.00000000000;2141.00000000000;2165.00000000000;2173.00000000000;2245.00000000000;2252.00000000000;2277.00000000000;2301.00000000000;2277.00000000000;2312.00000000000;2311.00000000000;2318.00000000000;2312.00000000000;2329.00000000000;2339.00000000000;2355.00000000000;2368.00000000000;2371.00000000000;2365.00000000000;2408.00000000000;2443.00000000000;2415.00000000000;2410.00000000000;2464.00000000000;2471.00000000000;2458.00000000000;2462.00000000000;2457.00000000000;2463.00000000000;2463.00000000000;2461.00000000000;2476.00000000000;2508.00000000000;2448.00000000000;2472.00000000000;2458.00000000000;2470.00000000000;2470.00000000000;2464.00000000000;2461.00000000000;2470.00000000000;2466.00000000000;2480.00000000000;2479.00000000000;2454.00000000000;2450.00000000000;2444.00000000000;2463.00000000000;2435.00000000000
Gyro Z : 1750.00000000000;1768.00000000000;1787.00000000000;1793.00000000000;1772.00000000000;1790.00000000000;1834.00000000000;1796.00000000000;1804.00000000000;1758.00000000000;1725.00000000000;1769.00000000000;1784.00000000000;1807.00000000000;1820.00000000000;1841.00000000000;1880.00000000000;1881.00000000000;1872.00000000000;1868.00000000000;1856.00000000000;1837.00000000000;1810.00000000000;1787.00000000000;1747.00000000000;1792.00000000000;1833.00000000000;1868.00000000000;1896.00000000000;1933.00000000000;1870.00000000000;1871.00000000000;1879.00000000000;1858.00000000000;1807.00000000000;1737.00000000000;1730.00000000000;1752.00000000000;1735.00000000000;1743.00000000000;1815.00000000000;1827.00000000000;1804.00000000000;1814.00000000000;1852.00000000000;1842.00000000000;1813.00000000000;1793.00000000000;1758.00000000000;1773.00000000000;1791.00000000000;1786.00000000000;1807.00000000000;1825.00000000000;1839.00000000000;1820.00000000000;1823.00000000000;1815.00000000000;1822.00000000000;1851.00000000000;1849.00000000000;1856.00000000000;1867.00000000000;1881.00000000000;1881.00000000000;1902.00000000000;1886.00000000000;1907.00000000000;1919.00000000000;1899.00000000000;1899.00000000000;1950.00000000000;1918.00000000000;1919.00000000000;1862.00000000000;1795.00000000000;1724.00000000000;1745.00000000000;1721.00000000000;1655.00000000000;1680.00000000000;1724.00000000000;1763.00000000000;1830.00000000000;1873.00000000000;1862.00000000000;1880.00000000000;1857.00000000000;1859.00000000000;1819.00000000000;1831.00000000000;1824.00000000000;1807.00000000000;1806.00000000000;1819.00000000000;1810.00000000000;1797.00000000000;1799.00000000000;1827.00000000000;1891.00000000000;1874.00000000000;1868.00000000000;1901.00000000000;1883.00000000000;1919.00000000000;1890.00000000000;1885.00000000000;1859.00000000000;1814.00000000000;1777.00000000000;1792.00000000000;1874.00000000000;1790.00000000000;1724.00000000000;1778.00000000000;1755.00000000000;1771.00000000000;1775.00000000000;1756.00000000000;1740.00000000000;1769.00000000000;1803.00000000000;1752.00000000000;1732.00000000000;1747.00000000000;1746.00000000000;1754.00000000000;1802.00000000000;1765.00000000000;1734.00000000000;1739.00000000000;1753.00000000000;1745.00000000000;1763.00000000000;1744.00000000000;1733.00000000000;1744.00000000000;1773.00000000000;1754.00000000000;1742.00000000000;1746.00000000000;1748.00000000000;1773.00000000000;1758.00000000000;1747.00000000000;1754.00000000000;1751.00000000000;1752.00000000000;1740.00000000000;1743.00000000000
