COMMAND 5 SAMPLE 1
Accel X : 986.000000000000;986.000000000000;955.000000000000;989.000000000000;990.000000000000;1013.00000000000;984.000000000000;999.000000000000;985.000000000000;996.000000000000;987.000000000000;986.000000000000;1002.00000000000;987.000000000000;971.000000000000;973.000000000000;979.000000000000;963.000000000000;982.000000000000;982.000000000000;987.000000000000;974.000000000000;1001.00000000000;968.000000000000;969.000000000000;975.000000000000;955.000000000000;963.000000000000;962.000000000000;973.000000000000;989.000000000000;973.000000000000;962.000000000000;967.000000000000;982.000000000000;971.000000000000;962.000000000000;985.000000000000;978.000000000000;963.000000000000;979.000000000000;975.000000000000;972.000000000000;972.000000000000;1011.00000000000;968.000000000000;954.000000000000;976.000000000000;1002.00000000000;981.000000000000;979.000000000000;977.000000000000;985.000000000000;985.000000000000;976.000000000000;974.000000000000;987.000000000000;965.000000000000;968.000000000000;964.000000000000;980.000000000000;972.000000000000;975.000000000000;980.000000000000;980.000000000000;943.000000000000;963.000000000000;980.000000000000;979.000000000000;965.000000000000;986.000000000000;953.000000000000;981.000000000000;954.000000000000;983.000000000000;961.000000000000;997.000000000000;980.000000000000;962.000000000000;967.000000000000;983.000000000000;966.000000000000;981.000000000000;968.000000000000;982.000000000000;999.000000000000;963.000000000000;952.000000000000;940.000000000000;971.000000000000;988.000000000000;1004.00000000000;968.000000000000;994.000000000000;978.000000000000;986.000000000000;984.000000000000;961.000000000000;994.000000000000;976.000000000000;984.000000000000;980.000000000000;977.000000000000;992.000000000000;975.000000000000;986.000000000000;972.000000000000;964.000000000000;996.000000000000;1002.00000000000;971.000000000000;975.000000000000;988.000000000000;947.000000000000;949.000000000000;963.000000000000;963.000000000000;971.000000000000;950.000000000000;964.000000000000;972.000000000000;990.000000000000;988.000000000000;951.000000000000;969.000000000000;947.000000000000;992.000000000000;988.000000000000;974.000000000000;967.000000000000;967.000000000000;999.000000000000;971.000000000000;963.000000000000;956.000000000000;975.000000000000;977.000000000000;981.000000000000;983.000000000000;979.000000000000;974.000000000000;972.000000000000;978.000000000000;962.000000000000;963.000000000000;971.000000000000;963.000000000000;962.000000000000;970.000000000000;957.000000000000
Accel Y : 2140.00000000000;2149.00000000000;2156.00000000000;2136.00000000000;2138.00000000000;2153.00000000000;2144.00000000000;2146.00000000000;2130.00000000000;2137.00000000000;2127.00000000000;2116.00000000000;2127.00000000000;2114.00000000000;2149.00000000000;2123.00000000000;2149.00000000000;2133.00000000000;2110.00000000000;2124.00000000000;2148.00000000000;2139.00000000000;2102.00000000000;2117.00000000000;2127.00000000000;2140.00000000000;2135.00000000000;2157.00000000000;2137.00000000000;2141.00000000000;2151.00000000000;2130.00000000000;2142.00000000000;2145.00000000000;2130.00000000000;2145.00000000000;2148.00000000000;2149.00000000000;2138.00000000000;2137.00000000000;2130.00000000000;2148.00000000000;2139.00000000000;2121.00000000000;2130.00000000000;2140.00000000000;2146.00000000000;2133.00000000000;2133.00000000000;2112.00000000000;2138.00000000000;2118.00000000000;2128.00000000000;2129.00000000000;2143.00000000000;2125.00000000000;2143.00000000000;2107.00000000000;2118.00000000000;2118.00000000000;2137.00000000000;2129.00000000000;2132.00000000000;2135.00000000000;2146.00000000000;2143.00000000000;2139.00000000000;2169.00000000000;2142.00000000000;2157.00000000000;2153.00000000000;2128.00000000000;2138.00000000000;2131.00000000000;2123.00000000000;2125.00000000000;2139.00000000000;2127.00000000000;2133.00000000000;2112.00000000000;2141.00000000000;2127.00000000000;2152.00000000000;2109.00000000000;2113.00000000000;2111.00000000000;2124.00000000000;2122.00000000000;2133.00000000000;2122.00000000000;2132.00000000000;2132.00000000000;2113.00000000000;2118.00000000000;2102.00000000000;2122.00000000000;2119.00000000000;2127.00000000000;2126.00000000000;2132.00000000000;2114.00000000000;2119.00000000000;2129.00000000000;2117.00000000000;2115.00000000000;2129.00000000000;2122.00000000000;2150.00000000000;2143.00000000000;2138.00000000000;2140.00000000000;2135.00000000000;2138.00000000000;2137.00000000000;2131.00000000000;2140.00000000000;2159.00000000000;2154.00000000000;2151.00000000000;2145.00000000000;2158.00000000000;2149.00000000000;2155.00000000000;2150.00000000000;2196.00000000000;2165.00000000000;2178.00000000000;2164.00000000000;2185.00000000000;2166.00000000000;2175.00000000000;2170.00000000000;2171.00000000000;2156.00000000000;2188.00000000000;2187.00000000000;2169.00000000000;2183.00000000000;2181.00000000000;2171.00000000000;2190.00000000000;2165.00000000000;2196.00000000000;2176.00000000000;2190.00000000000;2176.00000000000;2197.00000000000;2194.00000000000;2183.00000000000;2169.00000000000
Accel Z : 1798.00000000000;1762.00000000000;1778.00000000000;1762.00000000000;1800.00000000000;1794.00000000000;1811.00000000000;1776.00000000000;1769.00000000000;1763.00000000000;1767.00000000000;1769.00000000000;1781.00000000000;1768.00000000000;1722.00000000000;1772.00000000000;1750.00000000000;1769.00000000000;1753.00000000000;1738.00000000000;1760.00000000000;1755.00000000000;1767.00000000000;1783.00000000000;1747.00000000000;1753.00000000000;1750.00000000000;1745.00000000000;1750.00000000000;1768.00000000000;1754.00000000000;1755.00000000000;1750.00000000000;1798.00000000000;1764.00000000000;1803.00000000000;1757.00000000000;1779.00000000000;1752.00000000000;1761.00000000000;1786.00000000000;1783.00000000000;1753.00000000000;1767.00000000000;1773.00000000000;1780.00000000000;1776.00000000000;1750.00000000000;1751.00000000000;1780.00000000000;1769.00000000000;1753.00000000000;1744.00000000000;1767.00000000000;1747.00000000000;1775.00000000000;1736.00000000000;1774.00000000000;1789.00000000000;1755.00000000000;1780.00000000000;1761.00000000000;1779.00000000000;1760.00000000000;1761.00000000000;1760.00000000000;1773.00000000000;1757.00000000000;1772.00000000000;1764.00000000000;1751.00000000000;1770.00000000000;1770.00000000000;1761.00000000000;1757.00000000000;1751.00000000000;1764.00000000000;1763.00000000000;1766.00000000000;1760.00000000000;1758.00000000000;1762.00000000000;1747.00000000000;1759.00000000000;1734.00000000000;1766.00000000000;1749.00000000000;1757.00000000000;1753.00000000000;1751.00000000000;1767.00000000000;1782.00000000000;1773.00000000000;1783.00000000000;1747.00000000000;1760.00000000000;1762.00000000000;1788.00000000000;1743.00000000000;1762.00000000000;1761.00000000000;1752.00000000000;1761.00000000000;1746.00000000000;1769.00000000000;1763.00000000000;1771.00000000000;1779.00000000000;1755.00000000000;1776.00000000000;1777.00000000000;1779.00000000000;1790.00000000000;1786.00000000000;1750.00000000000;1775.00000000000;1786.00000000000;1794.00000000000;1770.00000000000;1768.00000000000;1789.00000000000;1760.00000000000;1781.00000000000;1774.00000000000;1801.00000000000;1803.00000000000;1787.00000000000;1798.00000000000;1814.00000000000;1787.00000000000;1808.00000000000;1777.00000000000;1777.00000000000;1784.00000000000;1779.00000000000;1784.00000000000;1789.00000000000;1801.00000000000;1764.00000000000;1772.00000000000;1774.00000000000;1787.00000000000;1780.00000000000;1810.00000000000;1783.00000000000;1795.00000000000;1818.00000000000;1788.00000000000;1807.00000000000;1815.00000000000
Gyro X : 986.000000000000;986.000000000000;955.000000000000;989.000000000000;990.000000000000;1013.00000000000;984.000000000000;999.000000000000;985.000000000000;996.000000000000;987.000000000000;986.000000000000;1002.00000000000;987.000000000000;971.000000000000;973.000000000000;979.000000000000;963.000000000000;982.000000000000;982.000000000000;987.000000000000;974.000000000000;1001.00000000000;968.000000000000;969.000000000000;975.000000000000;955.000000000000;963.000000000000;962.000000000000;973.000000000000;989.000000000000;973.000000000000;962.000000000000;967.000000000000;982.000000000000;971.000000000000;962.000000000000;985.000000000000;978.000000000000;963.000000000000;979.000000000000;975.000000000000;972.000000000000;972.000000000000;1011.00000000000;968.000000000000;954.000000000000;976.000000000000;1002.00000000000;981.000000000000;979.000000000000;977.000000000000;985.000000000000;985.000000000000;976.000000000000;974.000000000000;987.000000000000;965.000000000000;968.000000000000;964.000000000000;980.000000000000;972.000000000000;975.000000000000;980.000000000000;980.000000000000;943.000000000000;963.000000000000;980.000000000000;979.000000000000;965.000000000000;986.000000000000;953.000000000000;981.000000000000;954.000000000000;983.000000000000;961.000000000000;997.000000000000;980.000000000000;962.000000000000;967.000000000000;983.000000000000;966.000000000000;981.000000000000;968.000000000000;982.000000000000;999.000000000000;963.000000000000;952.000000000000;940.000000000000;971.000000000000;988.000000000000;1004.00000000000;968.000000000000;994.000000000000;978.000000000000;986.000000000000;984.000000000000;961.000000000000;994.000000000000;976.000000000000;984.000000000000;980.000000000000;977.000000000000;992.000000000000;975.000000000000;986.000000000000;972.000000000000;964.000000000000;996.000000000000;1002.00000000000;971.000000000000;975.000000000000;988.000000000000;947.000000000000;949.000000000000;963.000000000000;963.000000000000;971.000000000000;950.000000000000;964.000000000000;972.000000000000;990.000000000000;988.000000000000;951.000000000000;969.000000000000;947.000000000000;992.000000000000;988.000000000000;974.000000000000;967.000000000000;967.000000000000;999.000000000000;971.000000000000;963.000000000000;956.000000000000;975.000000000000;977.000000000000;981.000000000000;983.000000000000;979.000000000000;974.000000000000;972.000000000000;978.000000000000;962.000000000000;963.000000000000;971.000000000000;963.000000000000;962.000000000000;970.000000000000;957.000000000000
Gyro Y : 2140.00000000000;2149.00000000000;2156.00000000000;2136.00000000000;2138.00000000000;2153.00000000000;2144.00000000000;2146.00000000000;2130.00000000000;2137.00000000000;2127.00000000000;2116.00000000000;2127.00000000000;2114.00000000000;2149.00000000000;2123.00000000000;2149.00000000000;2133.00000000000;2110.00000000000;2124.00000000000;2148.00000000000;2139.00000000000;2102.00000000000;2117.00000000000;2127.00000000000;2140.00000000000;2135.00000000000;2157.00000000000;2137.00000000000;2141.00000000000;2151.00000000000;2130.00000000000;2142.00000000000;2145.00000000000;2130.00000000000;2145.00000000000;2148.00000000000;2149.00000000000;2138.00000000000;2137.00000000000;2130.00000000000;2148.00000000000;2139.00000000000;2121.00000000000;2130.00000000000;2140.00000000000;2146.00000000000;2133.00000000000;2133.00000000000;2112.00000000000;2138.00000000000;2118.00000000000;2128.00000000000;2129.00000000000;2143.00000000000;2125.00000000000;2143.00000000000;2107.00000000000;2118.00000000000;2118.00000000000;2137.00000000000;2129.00000000000;2132.00000000000;2135.00000000000;2146.00000000000;2143.00000000000;2139.00000000000;2169.00000000000;2142.00000000000;2157.00000000000;2153.00000000000;2128.00000000000;2138.00000000000;2131.00000000000;2123.00000000000;2125.00000000000;2139.00000000000;2127.00000000000;2133.00000000000;2112.00000000000;2141.00000000000;2127.00000000000;2152.00000000000;2109.00000000000;2113.00000000000;2111.00000000000;2124.00000000000;2122.00000000000;2133.00000000000;2122.00000000000;2132.00000000000;2132.00000000000;2113.00000000000;2118.00000000000;2102.00000000000;2122.00000000000;2119.00000000000;2127.00000000000;2126.00000000000;2132.00000000000;2114.00000000000;2119.00000000000;2129.00000000000;2117.00000000000;2115.00000000000;2129.00000000000;2122.00000000000;2150.00000000000;2143.00000000000;2138.00000000000;2140.00000000000;2135.00000000000;2138.00000000000;2137.00000000000;2131.00000000000;2140.00000000000;2159.00000000000;2154.00000000000;2151.00000000000;2145.00000000000;2158.00000000000;2149.00000000000;2155.00000000000;2150.00000000000;2196.00000000000;2165.00000000000;2178.00000000000;2164.00000000000;2185.00000000000;2166.00000000000;2175.00000000000;2170.00000000000;2171.00000000000;2156.00000000000;2188.00000000000;2187.00000000000;2169.00000000000;2183.00000000000;2181.00000000000;2171.00000000000;2190.00000000000;2165.00000000000;2196.00000000000;2176.00000000000;2190.00000000000;2176.00000000000;2197.00000000000;2194.00000000000;2183.00000000000;2169.00000000000
Gyro Z : 1798.00000000000;1762.00000000000;1778.00000000000;1762.00000000000;1800.00000000000;1794.00000000000;1811.00000000000;1776.00000000000;1769.00000000000;1763.00000000000;1767.00000000000;1769.00000000000;1781.00000000000;1768.00000000000;1722.00000000000;1772.00000000000;1750.00000000000;1769.00000000000;1753.00000000000;1738.00000000000;1760.00000000000;1755.00000000000;1767.00000000000;1783.00000000000;1747.00000000000;1753.00000000000;1750.00000000000;1745.00000000000;1750.00000000000;1768.00000000000;1754.00000000000;1755.00000000000;1750.00000000000;1798.00000000000;1764.00000000000;1803.00000000000;1757.00000000000;1779.00000000000;1752.00000000000;1761.00000000000;1786.00000000000;1783.00000000000;1753.00000000000;1767.00000000000;1773.00000000000;1780.00000000000;1776.00000000000;1750.00000000000;1751.00000000000;1780.00000000000;1769.00000000000;1753.00000000000;1744.00000000000;1767.00000000000;1747.00000000000;1775.00000000000;1736.00000000000;1774.00000000000;1789.00000000000;1755.00000000000;1780.00000000000;1761.00000000000;1779.00000000000;1760.00000000000;1761.00000000000;1760.00000000000;1773.00000000000;1757.00000000000;1772.00000000000;1764.00000000000;1751.00000000000;1770.00000000000;1770.00000000000;1761.00000000000;1757.00000000000;1751.00000000000;1764.00000000000;1763.00000000000;1766.00000000000;1760.00000000000;1758.00000000000;1762.00000000000;1747.00000000000;1759.00000000000;1734.00000000000;1766.00000000000;1749.00000000000;1757.00000000000;1753.00000000000;1751.00000000000;1767.00000000000;1782.00000000000;1773.00000000000;1783.00000000000;1747.00000000000;1760.00000000000;1762.00000000000;1788.00000000000;1743.00000000000;1762.00000000000;1761.00000000000;1752.00000000000;1761.00000000000;1746.00000000000;1769.00000000000;1763.00000000000;1771.00000000000;1779.00000000000;1755.00000000000;1776.00000000000;1777.00000000000;1779.00000000000;1790.00000000000;1786.00000000000;1750.00000000000;1775.00000000000;1786.00000000000;1794.00000000000;1770.00000000000;1768.00000000000;1789.00000000000;1760.00000000000;1781.00000000000;1774.00000000000;1801.00000000000;1803.00000000000;1787.00000000000;1798.00000000000;1814.00000000000;1787.00000000000;1808.00000000000;1777.00000000000;1777.00000000000;1784.00000000000;1779.00000000000;1784.00000000000;1789.00000000000;1801.00000000000;1764.00000000000;1772.00000000000;1774.00000000000;1787.00000000000;1780.00000000000;1810.00000000000;1783.00000000000;1795.00000000000;1818.00000000000;1788.00000000000;1807.00000000000;1815.00000000000
