COMMAND 1 SAMPLE 1
Accel X : 993.000000000000;994.000000000000;982.000000000000;979.000000000000;987.000000000000;978.000000000000;986.000000000000;976.000000000000;980.000000000000;994.000000000000;985.000000000000;995.000000000000;996.000000000000;986.000000000000;972.000000000000;983.000000000000;983.000000000000;1004.00000000000;982.000000000000;990.000000000000;983.000000000000;993.000000000000;962.000000000000;981.000000000000;982.000000000000;1006.00000000000;999.000000000000;994.000000000000;962.000000000000;992.000000000000;998.000000000000;982.000000000000;987.000000000000;964.000000000000;988.000000000000;991.000000000000;985.000000000000;980.000000000000;961.000000000000;986.000000000000;987.000000000000;1004.00000000000;991.000000000000;996.000000000000;988.000000000000;975.000000000000;979.000000000000;998.000000000000;986.000000000000;959.000000000000;985.000000000000;978.000000000000;1031.00000000000;1027.00000000000;956.000000000000;861.000000000000;825.000000000000;810.000000000000;726.000000000000;726.000000000000;731.000000000000;797.000000000000;801.000000000000;801.000000000000;833.000000000000;969.000000000000;1141.00000000000;1151.00000000000;1179.00000000000;1226.00000000000;1278.00000000000;1500.00000000000;1614.00000000000;1593.00000000000;1629.00000000000;1651.00000000000;1769.00000000000;1891.00000000000;2119.00000000000;2273.00000000000;2223.00000000000;2129.00000000000;2039.00000000000;1855.00000000000;1736.00000000000;1635.00000000000;1684.00000000000;1792.00000000000;1825.00000000000;1853.00000000000;1888.00000000000;1866.00000000000;1886.00000000000;1805.00000000000;1742.00000000000;1778.00000000000;1765.00000000000;1721.00000000000;1631.00000000000;1518.00000000000;1370.00000000000;988.000000000000;505.000000000000;587.000000000000;772.000000000000;880.000000000000;1056.00000000000;1141.00000000000;941.000000000000;803.000000000000;707.000000000000;745.000000000000;639.000000000000;498.000000000000;644.000000000000;726.000000000000;864.000000000000;927.000000000000;908.000000000000;893.000000000000;893.000000000000;927.000000000000;988.000000000000;999.000000000000;1009.00000000000;1012.00000000000;999.000000000000;998.000000000000;1001.00000000000;988.000000000000;1000.00000000000;984.000000000000;985.000000000000;1004.00000000000;988.000000000000;1007.00000000000;1016.00000000000;993.000000000000;1015.00000000000;1007.00000000000;961.000000000000;1002.00000000000;975.000000000000;991.000000000000;988.000000000000;998.000000000000;988.000000000000;982.000000000000;1011.00000000000;997.000000000000
Accel Y : 2226.00000000000;2224.00000000000;2247.00000000000;2225.00000000000;2236.00000000000;2243.00000000000;2253.00000000000;2222.00000000000;2250.00000000000;2205.00000000000;2254.00000000000;2237.00000000000;2214.00000000000;2247.00000000000;2228.00000000000;2232.00000000000;2218.00000000000;2225.00000000000;2210.00000000000;2221.00000000000;2255.00000000000;2228.00000000000;2217.00000000000;2232.00000000000;2231.00000000000;2245.00000000000;2211.00000000000;2230.00000000000;2234.00000000000;2237.00000000000;2242.00000000000;2215.00000000000;2229.00000000000;2220.00000000000;2239.00000000000;2222.00000000000;2221.00000000000;2256.00000000000;2225.00000000000;2218.00000000000;2223.00000000000;2238.00000000000;2233.00000000000;2222.00000000000;2221.00000000000;2210.00000000000;2230.00000000000;2186.00000000000;2211.00000000000;2213.00000000000;2191.00000000000;2187.00000000000;2139.00000000000;2135.00000000000;2131.00000000000;2188.00000000000;2162.00000000000;2150.00000000000;2110.00000000000;2086.00000000000;2075.00000000000;2044.00000000000;2003.00000000000;1956.00000000000;1901.00000000000;1864.00000000000;1821.00000000000;1713.00000000000;1684.00000000000;1705.00000000000;1715.00000000000;1750.00000000000;1821.00000000000;1771.00000000000;1797.00000000000;1788.00000000000;1754.00000000000;1752.00000000000;1711.00000000000;1657.00000000000;1557.00000000000;1503.00000000000;1510.00000000000;1520.00000000000;1561.00000000000;1601.00000000000;1608.00000000000;1581.00000000000;1542.00000000000;1524.00000000000;1475.00000000000;1546.00000000000;1629.00000000000;1721.00000000000;1700.00000000000;1527.00000000000;1484.00000000000;1538.00000000000;1662.00000000000;1744.00000000000;1641.00000000000;1732.00000000000;1691.00000000000;1710.00000000000;1855.00000000000;1890.00000000000;1867.00000000000;1968.00000000000;2104.00000000000;2327.00000000000;2304.00000000000;2215.00000000000;2255.00000000000;2286.00000000000;2252.00000000000;2207.00000000000;2201.00000000000;2215.00000000000;2225.00000000000;2265.00000000000;2276.00000000000;2294.00000000000;2254.00000000000;2269.00000000000;2253.00000000000;2233.00000000000;2263.00000000000;2248.00000000000;2278.00000000000;2241.00000000000;2241.00000000000;2240.00000000000;2260.00000000000;2240.00000000000;2228.00000000000;2232.00000000000;2222.00000000000;2241.00000000000;2205.00000000000;2239.00000000000;2253.00000000000;2246.00000000000;2234.00000000000;2235.00000000000;2232.00000000000;2248.00000000000;2237.00000000000;2256.00000000000;2249.00000000000;2227.00000000000
Accel Z : 1865.00000000000;1851.00000000000;1836.00000000000;1824.00000000000;1827.00000000000;1807.00000000000;1834.00000000000;1825.00000000000;1835.00000000000;1855.00000000000;1829.00000000000;1827.00000000000;1839.00000000000;1846.00000000000;1838.00000000000;1843.00000000000;1814.00000000000;1823.00000000000;1830.00000000000;1805.00000000000;1819.00000000000;1817.00000000000;1830.00000000000;1831.00000000000;1803.00000000000;1817.00000000000;1810.00000000000;1828.00000000000;1801.00000000000;1828.00000000000;1805.00000000000;1801.00000000000;1816.00000000000;1800.00000000000;1809.00000000000;1820.00000000000;1825.00000000000;1808.00000000000;1815.00000000000;1823.00000000000;1792.00000000000;1812.00000000000;1805.00000000000;1799.00000000000;1798.00000000000;1804.00000000000;1817.00000000000;1811.00000000000;1793.00000000000;1794.00000000000;1811.00000000000;1785.00000000000;1810.00000000000;1823.00000000000;1741.00000000000;1703.00000000000;1639.00000000000;1543.00000000000;1459.00000000000;1393.00000000000;1249.00000000000;1180.00000000000;1047.00000000000;995.000000000000;813.000000000000;741.000000000000;694.000000000000;548.000000000000;487.000000000000;556.000000000000;624.000000000000;795.000000000000;978.000000000000;1222.00000000000;1455.00000000000;1794.00000000000;2126.00000000000;2220.00000000000;2205.00000000000;2164.00000000000;1998.00000000000;1883.00000000000;1825.00000000000;1915.00000000000;2053.00000000000;2139.00000000000;2064.00000000000;2017.00000000000;2004.00000000000;2011.00000000000;1974.00000000000;1917.00000000000;1845.00000000000;1803.00000000000;1661.00000000000;1494.00000000000;1426.00000000000;1399.00000000000;1226.00000000000;1185.00000000000;1293.00000000000;1018.00000000000;676.000000000000;684.000000000000;996.000000000000;1280.00000000000;1672.00000000000;1938.00000000000;2063.00000000000;2123.00000000000;2078.00000000000;2028.00000000000;1984.00000000000;1944.00000000000;1920.00000000000;1891.00000000000;1874.00000000000;1858.00000000000;1841.00000000000;1841.00000000000;1859.00000000000;1849.00000000000;1862.00000000000;1865.00000000000;1846.00000000000;1838.00000000000;1817.00000000000;1834.00000000000;1814.00000000000;1806.00000000000;1828.00000000000;1824.00000000000;1822.00000000000;1842.00000000000;1853.00000000000;1827.00000000000;1821.00000000000;1822.00000000000;1868.00000000000;1866.00000000000;1842.00000000000;1819.00000000000;1815.00000000000;1840.00000000000;1851.00000000000;1874.00000000000;1830.00000000000;1842.00000000000;1858.00000000000;1854.00000000000
Gyro X : 993.000000000000;994.000000000000;982.000000000000;979.000000000000;987.000000000000;978.000000000000;986.000000000000;976.000000000000;980.000000000000;994.000000000000;985.000000000000;995.000000000000;996.000000000000;986.000000000000;972.000000000000;983.000000000000;983.000000000000;1004.00000000000;982.000000000000;990.000000000000;983.000000000000;993.000000000000;962.000000000000;981.000000000000;982.000000000000;1006.00000000000;999.000000000000;994.000000000000;962.000000000000;992.000000000000;998.000000000000;982.000000000000;987.000000000000;964.000000000000;988.000000000000;991.000000000000;985.000000000000;980.000000000000;961.000000000000;986.000000000000;987.000000000000;1004.00000000000;991.000000000000;996.000000000000;988.000000000000;975.000000000000;979.000000000000;998.000000000000;986.000000000000;959.000000000000;985.000000000000;978.000000000000;1031.00000000000;1027.00000000000;956.000000000000;861.000000000000;825.000000000000;810.000000000000;726.000000000000;726.000000000000;731.000000000000;797.000000000000;801.000000000000;801.000000000000;833.000000000000;969.000000000000;1141.00000000000;1151.00000000000;1179.00000000000;1226.00000000000;1278.00000000000;1500.00000000000;1614.00000000000;1593.00000000000;1629.00000000000;1651.00000000000;1769.00000000000;1891.00000000000;2119.00000000000;2273.00000000000;2223.00000000000;2129.00000000000;2039.00000000000;1855.00000000000;1736.00000000000;1635.00000000000;1684.00000000000;1792.00000000000;1825.00000000000;1853.00000000000;1888.00000000000;1866.00000000000;1886.00000000000;1805.00000000000;1742.00000000000;1778.00000000000;1765.00000000000;1721.00000000000;1631.00000000000;1518.00000000000;1370.00000000000;988.000000000000;505.000000000000;587.000000000000;772.000000000000;880.000000000000;1056.00000000000;1141.00000000000;941.000000000000;803.000000000000;707.000000000000;745.000000000000;639.000000000000;498.000000000000;644.000000000000;726.000000000000;864.000000000000;927.000000000000;908.000000000000;893.000000000000;893.000000000000;927.000000000000;988.000000000000;999.000000000000;1009.00000000000;1012.00000000000;999.000000000000;998.000000000000;1001.00000000000;988.000000000000;1000.00000000000;984.000000000000;985.000000000000;1004.00000000000;988.000000000000;1007.00000000000;1016.00000000000;993.000000000000;1015.00000000000;1007.00000000000;961.000000000000;1002.00000000000;975.000000000000;991.000000000000;988.000000000000;998.000000000000;988.000000000000;982.000000000000;1011.00000000000;997.000000000000
Gyro Y : 2226.00000000000;2224.00000000000;2247.00000000000;2225.00000000000;2236.00000000000;2243.00000000000;2253.00000000000;2222.00000000000;2250.00000000000;2205.00000000000;2254.00000000000;2237.00000000000;2214.00000000000;2247.00000000000;2228.00000000000;2232.00000000000;2218.00000000000;2225.00000000000;2210.00000000000;2221.00000000000;2255.00000000000;2228.00000000000;2217.00000000000;2232.00000000000;2231.00000000000;2245.00000000000;2211.00000000000;2230.00000000000;2234.00000000000;2237.00000000000;2242.00000000000;2215.00000000000;2229.00000000000;2220.00000000000;2239.00000000000;2222.00000000000;2221.00000000000;2256.00000000000;2225.00000000000;2218.00000000000;2223.00000000000;2238.00000000000;2233.00000000000;2222.00000000000;2221.00000000000;2210.00000000000;2230.00000000000;2186.00000000000;2211.00000000000;2213.00000000000;2191.00000000000;2187.00000000000;2139.00000000000;2135.00000000000;2131.00000000000;2188.00000000000;2162.00000000000;2150.00000000000;2110.00000000000;2086.00000000000;2075.00000000000;2044.00000000000;2003.00000000000;1956.00000000000;1901.00000000000;1864.00000000000;1821.00000000000;1713.00000000000;1684.00000000000;1705.00000000000;1715.00000000000;1750.00000000000;1821.00000000000;1771.00000000000;1797.00000000000;1788.00000000000;1754.00000000000;1752.00000000000;1711.00000000000;1657.00000000000;1557.00000000000;1503.00000000000;1510.00000000000;1520.00000000000;1561.00000000000;1601.00000000000;1608.00000000000;1581.00000000000;1542.00000000000;1524.00000000000;1475.00000000000;1546.00000000000;1629.00000000000;1721.00000000000;1700.00000000000;1527.00000000000;1484.00000000000;1538.00000000000;1662.00000000000;1744.00000000000;1641.00000000000;1732.00000000000;1691.00000000000;1710.00000000000;1855.00000000000;1890.00000000000;1867.00000000000;1968.00000000000;2104.00000000000;2327.00000000000;2304.00000000000;2215.00000000000;2255.00000000000;2286.00000000000;2252.00000000000;2207.00000000000;2201.00000000000;2215.00000000000;2225.00000000000;2265.00000000000;2276.00000000000;2294.00000000000;2254.00000000000;2269.00000000000;2253.00000000000;2233.00000000000;2263.00000000000;2248.00000000000;2278.00000000000;2241.00000000000;2241.00000000000;2240.00000000000;2260.00000000000;2240.00000000000;2228.00000000000;2232.00000000000;2222.00000000000;2241.00000000000;2205.00000000000;2239.00000000000;2253.00000000000;2246.00000000000;2234.00000000000;2235.00000000000;2232.00000000000;2248.00000000000;2237.00000000000;2256.00000000000;2249.00000000000;2227.00000000000
Gyro Z : 1865.00000000000;1851.00000000000;1836.00000000000;1824.00000000000;1827.00000000000;1807.00000000000;1834.00000000000;1825.00000000000;1835.00000000000;1855.00000000000;1829.00000000000;1827.00000000000;1839.00000000000;1846.00000000000;1838.00000000000;1843.00000000000;1814.00000000000;1823.00000000000;1830.00000000000;1805.00000000000;1819.00000000000;1817.00000000000;1830.00000000000;1831.00000000000;1803.00000000000;1817.00000000000;1810.00000000000;1828.00000000000;1801.00000000000;1828.00000000000;1805.00000000000;1801.00000000000;1816.00000000000;1800.00000000000;1809.00000000000;1820.00000000000;1825.00000000000;1808.00000000000;1815.00000000000;1823.00000000000;1792.00000000000;1812.00000000000;1805.00000000000;1799.00000000000;1798.00000000000;1804.00000000000;1817.00000000000;1811.00000000000;1793.00000000000;1794.00000000000;1811.00000000000;1785.00000000000;1810.00000000000;1823.00000000000;1741.00000000000;1703.00000000000;1639.00000000000;1543.00000000000;1459.00000000000;1393.00000000000;1249.00000000000;1180.00000000000;1047.00000000000;995.000000000000;813.000000000000;741.000000000000;694.000000000000;548.000000000000;487.000000000000;556.000000000000;624.000000000000;795.000000000000;978.000000000000;1222.00000000000;1455.00000000000;1794.00000000000;2126.00000000000;2220.00000000000;2205.00000000000;2164.00000000000;1998.00000000000;1883.00000000000;1825.00000000000;1915.00000000000;2053.00000000000;2139.00000000000;2064.00000000000;2017.00000000000;2004.00000000000;2011.00000000000;1974.00000000000;1917.00000000000;1845.00000000000;1803.00000000000;1661.00000000000;1494.00000000000;1426.00000000000;1399.00000000000;1226.00000000000;1185.00000000000;1293.00000000000;1018.00000000000;676.000000000000;684.000000000000;996.000000000000;1280.00000000000;1672.00000000000;1938.00000000000;2063.00000000000;2123.00000000000;2078.00000000000;2028.00000000000;1984.00000000000;1944.00000000000;1920.00000000000;1891.00000000000;1874.00000000000;1858.00000000000;1841.00000000000;1841.00000000000;1859.00000000000;1849.00000000000;1862.00000000000;1865.00000000000;1846.00000000000;1838.00000000000;1817.00000000000;1834.00000000000;1814.00000000000;1806.00000000000;1828.00000000000;1824.00000000000;1822.00000000000;1842.00000000000;1853.00000000000;1827.00000000000;1821.00000000000;1822.00000000000;1868.00000000000;1866.00000000000;1842.00000000000;1819.00000000000;1815.00000000000;1840.00000000000;1851.00000000000;1874.00000000000;1830.00000000000;1842.00000000000;1858.00000000000;1854.00000000000
COMMAND 1 SAMPLE 1
Accel X : 989.000000000000;980.000000000000;982.000000000000;987.000000000000;963.000000000000;982.000000000000;975.000000000000;978.000000000000;979.000000000000;998.000000000000;1003.00000000000;995.000000000000;981.000000000000;975.000000000000;975.000000000000;974.000000000000;978.000000000000;997.000000000000;991.000000000000;977.000000000000;963.000000000000;965.000000000000;966.000000000000;994.000000000000;973.000000000000;967.000000000000;959.000000000000;934.000000000000;990.000000000000;976.000000000000;953.000000000000;965.000000000000;967.000000000000;973.000000000000;969.000000000000;974.000000000000;974.000000000000;981.000000000000;988.000000000000;974.000000000000;987.000000000000;978.000000000000;983.000000000000;991.000000000000;965.000000000000;961.000000000000;906.000000000000;911.000000000000;839.000000000000;843.000000000000;775.000000000000;694.000000000000;681.000000000000;721.000000000000;754.000000000000;764.000000000000;896.000000000000;880.000000000000;935.000000000000;1056.00000000000;1117.00000000000;1209.00000000000;1231.00000000000;1317.00000000000;1416.00000000000;1450.00000000000;1567.00000000000;1674.00000000000;1841.00000000000;1989.00000000000;1986.00000000000;2237.00000000000;2287.00000000000;2179.00000000000;2033.00000000000;1918.00000000000;1829.00000000000;1859.00000000000;1851.00000000000;1800.00000000000;1784.00000000000;1748.00000000000;1799.00000000000;1834.00000000000;1829.00000000000;1780.00000000000;1675.00000000000;1658.00000000000;1628.00000000000;1538.00000000000;1474.00000000000;1523.00000000000;1403.00000000000;1049.00000000000;841.000000000000;944.000000000000;1174.00000000000;971.000000000000;518.000000000000;312.000000000000;636.000000000000;615.000000000000;560.000000000000;615.000000000000;671.000000000000;746.000000000000;947.000000000000;959.000000000000;961.000000000000;1008.00000000000;1020.00000000000;1086.00000000000;1052.00000000000;1039.00000000000;1018.00000000000;1025.00000000000;1013.00000000000;1032.00000000000;1014.00000000000;965.000000000000;981.000000000000;988.000000000000;1011.00000000000;1033.00000000000;1024.00000000000;1002.00000000000;989.000000000000;966.000000000000;1018.00000000000;1024.00000000000;1013.00000000000;997.000000000000;994.000000000000;1025.00000000000;1005.00000000000;1014.00000000000;995.000000000000;987.000000000000;1009.00000000000;1024.00000000000;1000.00000000000;1015.00000000000;989.000000000000;1001.00000000000;1008.00000000000;1024.00000000000;1003.00000000000;985.000000000000;1001.00000000000;999.000000000000
Accel Y : 2195.00000000000;2191.00000000000;2187.00000000000;2185.00000000000;2214.00000000000;2191.00000000000;2195.00000000000;2189.00000000000;2165.00000000000;2157.00000000000;2176.00000000000;2191.00000000000;2201.00000000000;2210.00000000000;2192.00000000000;2183.00000000000;2194.00000000000;2201.00000000000;2199.00000000000;2201.00000000000;2206.00000000000;2211.00000000000;2195.00000000000;2190.00000000000;2197.00000000000;2206.00000000000;2197.00000000000;2193.00000000000;2204.00000000000;2204.00000000000;2217.00000000000;2213.00000000000;2199.00000000000;2212.00000000000;2210.00000000000;2193.00000000000;2191.00000000000;2210.00000000000;2219.00000000000;2196.00000000000;2211.00000000000;2210.00000000000;2208.00000000000;2195.00000000000;2190.00000000000;2182.00000000000;2152.00000000000;2119.00000000000;2148.00000000000;2088.00000000000;2116.00000000000;2121.00000000000;2114.00000000000;2102.00000000000;2017.00000000000;1991.00000000000;1934.00000000000;1881.00000000000;1873.00000000000;1823.00000000000;1748.00000000000;1732.00000000000;1693.00000000000;1705.00000000000;1715.00000000000;1736.00000000000;1756.00000000000;1767.00000000000;1741.00000000000;1685.00000000000;1560.00000000000;1613.00000000000;1677.00000000000;1671.00000000000;1633.00000000000;1631.00000000000;1602.00000000000;1589.00000000000;1631.00000000000;1611.00000000000;1577.00000000000;1490.00000000000;1454.00000000000;1497.00000000000;1616.00000000000;1695.00000000000;1496.00000000000;1479.00000000000;1454.00000000000;1536.00000000000;1625.00000000000;1570.00000000000;1582.00000000000;1585.00000000000;1699.00000000000;1887.00000000000;1952.00000000000;2057.00000000000;2105.00000000000;2213.00000000000;2203.00000000000;2258.00000000000;2155.00000000000;2095.00000000000;2101.00000000000;2161.00000000000;2130.00000000000;2138.00000000000;2159.00000000000;2162.00000000000;2182.00000000000;2178.00000000000;2227.00000000000;2211.00000000000;2227.00000000000;2213.00000000000;2236.00000000000;2231.00000000000;2247.00000000000;2238.00000000000;2199.00000000000;2224.00000000000;2210.00000000000;2205.00000000000;2219.00000000000;2208.00000000000;2235.00000000000;2207.00000000000;2219.00000000000;2242.00000000000;2213.00000000000;2232.00000000000;2176.00000000000;2203.00000000000;2191.00000000000;2186.00000000000;2203.00000000000;2207.00000000000;2180.00000000000;2201.00000000000;2217.00000000000;2216.00000000000;2202.00000000000;2191.00000000000;2216.00000000000;2198.00000000000;2188.00000000000;2215.00000000000;2206.00000000000;2188.00000000000
Accel Z : 1812.00000000000;1804.00000000000;1773.00000000000;1786.00000000000;1787.00000000000;1812.00000000000;1784.00000000000;1792.00000000000;1792.00000000000;1819.00000000000;1794.00000000000;1755.00000000000;1803.00000000000;1791.00000000000;1779.00000000000;1780.00000000000;1780.00000000000;1764.00000000000;1775.00000000000;1781.00000000000;1795.00000000000;1781.00000000000;1777.00000000000;1772.00000000000;1794.00000000000;1789.00000000000;1791.00000000000;1784.00000000000;1774.00000000000;1806.00000000000;1766.00000000000;1793.00000000000;1767.00000000000;1783.00000000000;1783.00000000000;1781.00000000000;1787.00000000000;1815.00000000000;1789.00000000000;1789.00000000000;1785.00000000000;1773.00000000000;1775.00000000000;1740.00000000000;1743.00000000000;1748.00000000000;1678.00000000000;1633.00000000000;1540.00000000000;1494.00000000000;1378.00000000000;1251.00000000000;1202.00000000000;1166.00000000000;1068.00000000000;993.000000000000;996.000000000000;923.000000000000;820.000000000000;780.000000000000;733.000000000000;772.000000000000;716.000000000000;759.000000000000;881.000000000000;1103.00000000000;1495.00000000000;1777.00000000000;2169.00000000000;2226.00000000000;2084.00000000000;2082.00000000000;2201.00000000000;2210.00000000000;2150.00000000000;2050.00000000000;1966.00000000000;1898.00000000000;1899.00000000000;1972.00000000000;2009.00000000000;1946.00000000000;1932.00000000000;1868.00000000000;1838.00000000000;1704.00000000000;1553.00000000000;1447.00000000000;1381.00000000000;1282.00000000000;1204.00000000000;1238.00000000000;1101.00000000000;934.000000000000;877.000000000000;1091.00000000000;1515.00000000000;1719.00000000000;1641.00000000000;1663.00000000000;1934.00000000000;1914.00000000000;1868.00000000000;1896.00000000000;1914.00000000000;1882.00000000000;1976.00000000000;1963.00000000000;1954.00000000000;1955.00000000000;1946.00000000000;1992.00000000000;1976.00000000000;1982.00000000000;1959.00000000000;1914.00000000000;1943.00000000000;1971.00000000000;1949.00000000000;1976.00000000000;1948.00000000000;1920.00000000000;1929.00000000000;1959.00000000000;1977.00000000000;1970.00000000000;1957.00000000000;1910.00000000000;1951.00000000000;1988.00000000000;1987.00000000000;1955.00000000000;1951.00000000000;1948.00000000000;1945.00000000000;1956.00000000000;1930.00000000000;1949.00000000000;1942.00000000000;1967.00000000000;1949.00000000000;1942.00000000000;1946.00000000000;1934.00000000000;1942.00000000000;1927.00000000000;1942.00000000000;1929.00000000000;1925.00000000000;1909.00000000000
Gyro X : 989.000000000000;980.000000000000;982.000000000000;987.000000000000;963.000000000000;982.000000000000;975.000000000000;978.000000000000;979.000000000000;998.000000000000;1003.00000000000;995.000000000000;981.000000000000;975.000000000000;975.000000000000;974.000000000000;978.000000000000;997.000000000000;991.000000000000;977.000000000000;963.000000000000;965.000000000000;966.000000000000;994.000000000000;973.000000000000;967.000000000000;959.000000000000;934.000000000000;990.000000000000;976.000000000000;953.000000000000;965.000000000000;967.000000000000;973.000000000000;969.000000000000;974.000000000000;974.000000000000;981.000000000000;988.000000000000;974.000000000000;987.000000000000;978.000000000000;983.000000000000;991.000000000000;965.000000000000;961.000000000000;906.000000000000;911.000000000000;839.000000000000;843.000000000000;775.000000000000;694.000000000000;681.000000000000;721.000000000000;754.000000000000;764.000000000000;896.000000000000;880.000000000000;935.000000000000;1056.00000000000;1117.00000000000;1209.00000000000;1231.00000000000;1317.00000000000;1416.00000000000;1450.00000000000;1567.00000000000;1674.00000000000;1841.00000000000;1989.00000000000;1986.00000000000;2237.00000000000;2287.00000000000;2179.00000000000;2033.00000000000;1918.00000000000;1829.00000000000;1859.00000000000;1851.00000000000;1800.00000000000;1784.00000000000;1748.00000000000;1799.00000000000;1834.00000000000;1829.00000000000;1780.00000000000;1675.00000000000;1658.00000000000;1628.00000000000;1538.00000000000;1474.00000000000;1523.00000000000;1403.00000000000;1049.00000000000;841.000000000000;944.000000000000;1174.00000000000;971.000000000000;518.000000000000;312.000000000000;636.000000000000;615.000000000000;560.000000000000;615.000000000000;671.000000000000;746.000000000000;947.000000000000;959.000000000000;961.000000000000;1008.00000000000;1020.00000000000;1086.00000000000;1052.00000000000;1039.00000000000;1018.00000000000;1025.00000000000;1013.00000000000;1032.00000000000;1014.00000000000;965.000000000000;981.000000000000;988.000000000000;1011.00000000000;1033.00000000000;1024.00000000000;1002.00000000000;989.000000000000;966.000000000000;1018.00000000000;1024.00000000000;1013.00000000000;997.000000000000;994.000000000000;1025.00000000000;1005.00000000000;1014.00000000000;995.000000000000;987.000000000000;1009.00000000000;1024.00000000000;1000.00000000000;1015.00000000000;989.000000000000;1001.00000000000;1008.00000000000;1024.00000000000;1003.00000000000;985.000000000000;1001.00000000000;999.000000000000
Gyro Y : 2195.00000000000;2191.00000000000;2187.00000000000;2185.00000000000;2214.00000000000;2191.00000000000;2195.00000000000;2189.00000000000;2165.00000000000;2157.00000000000;2176.00000000000;2191.00000000000;2201.00000000000;2210.00000000000;2192.00000000000;2183.00000000000;2194.00000000000;2201.00000000000;2199.00000000000;2201.00000000000;2206.00000000000;2211.00000000000;2195.00000000000;2190.00000000000;2197.00000000000;2206.00000000000;2197.00000000000;2193.00000000000;2204.00000000000;2204.00000000000;2217.00000000000;2213.00000000000;2199.00000000000;2212.00000000000;2210.00000000000;2193.00000000000;2191.00000000000;2210.00000000000;2219.00000000000;2196.00000000000;2211.00000000000;2210.00000000000;2208.00000000000;2195.00000000000;2190.00000000000;2182.00000000000;2152.00000000000;2119.00000000000;2148.00000000000;2088.00000000000;2116.00000000000;2121.00000000000;2114.00000000000;2102.00000000000;2017.00000000000;1991.00000000000;1934.00000000000;1881.00000000000;1873.00000000000;1823.00000000000;1748.00000000000;1732.00000000000;1693.00000000000;1705.00000000000;1715.00000000000;1736.00000000000;1756.00000000000;1767.00000000000;1741.00000000000;1685.00000000000;1560.00000000000;1613.00000000000;1677.00000000000;1671.00000000000;1633.00000000000;1631.00000000000;1602.00000000000;1589.00000000000;1631.00000000000;1611.00000000000;1577.00000000000;1490.00000000000;1454.00000000000;1497.00000000000;1616.00000000000;1695.00000000000;1496.00000000000;1479.00000000000;1454.00000000000;1536.00000000000;1625.00000000000;1570.00000000000;1582.00000000000;1585.00000000000;1699.00000000000;1887.00000000000;1952.00000000000;2057.00000000000;2105.00000000000;2213.00000000000;2203.00000000000;2258.00000000000;2155.00000000000;2095.00000000000;2101.00000000000;2161.00000000000;2130.00000000000;2138.00000000000;2159.00000000000;2162.00000000000;2182.00000000000;2178.00000000000;2227.00000000000;2211.00000000000;2227.00000000000;2213.00000000000;2236.00000000000;2231.00000000000;2247.00000000000;2238.00000000000;2199.00000000000;2224.00000000000;2210.00000000000;2205.00000000000;2219.00000000000;2208.00000000000;2235.00000000000;2207.00000000000;2219.00000000000;2242.00000000000;2213.00000000000;2232.00000000000;2176.00000000000;2203.00000000000;2191.00000000000;2186.00000000000;2203.00000000000;2207.00000000000;2180.00000000000;2201.00000000000;2217.00000000000;2216.00000000000;2202.00000000000;2191.00000000000;2216.00000000000;2198.00000000000;2188.00000000000;2215.00000000000;2206.00000000000;2188.00000000000
Gyro Z : 1812.00000000000;1804.00000000000;1773.00000000000;1786.00000000000;1787.00000000000;1812.00000000000;1784.00000000000;1792.00000000000;1792.00000000000;1819.00000000000;1794.00000000000;1755.00000000000;1803.00000000000;1791.00000000000;1779.00000000000;1780.00000000000;1780.00000000000;1764.00000000000;1775.00000000000;1781.00000000000;1795.00000000000;1781.00000000000;1777.00000000000;1772.00000000000;1794.00000000000;1789.00000000000;1791.00000000000;1784.00000000000;1774.00000000000;1806.00000000000;1766.00000000000;1793.00000000000;1767.00000000000;1783.00000000000;1783.00000000000;1781.00000000000;1787.00000000000;1815.00000000000;1789.00000000000;1789.00000000000;1785.00000000000;1773.00000000000;1775.00000000000;1740.00000000000;1743.00000000000;1748.00000000000;1678.00000000000;1633.00000000000;1540.00000000000;1494.00000000000;1378.00000000000;1251.00000000000;1202.00000000000;1166.00000000000;1068.00000000000;993.000000000000;996.000000000000;923.000000000000;820.000000000000;780.000000000000;733.000000000000;772.000000000000;716.000000000000;759.000000000000;881.000000000000;1103.00000000000;1495.00000000000;1777.00000000000;2169.00000000000;2226.00000000000;2084.00000000000;2082.00000000000;2201.00000000000;2210.00000000000;2150.00000000000;2050.00000000000;1966.00000000000;1898.00000000000;1899.00000000000;1972.00000000000;2009.00000000000;1946.00000000000;1932.00000000000;1868.00000000000;1838.00000000000;1704.00000000000;1553.00000000000;1447.00000000000;1381.00000000000;1282.00000000000;1204.00000000000;1238.00000000000;1101.00000000000;934.000000000000;877.000000000000;1091.00000000000;1515.00000000000;1719.00000000000;1641.00000000000;1663.00000000000;1934.00000000000;1914.00000000000;1868.00000000000;1896.00000000000;1914.00000000000;1882.00000000000;1976.00000000000;1963.00000000000;1954.00000000000;1955.00000000000;1946.00000000000;1992.00000000000;1976.00000000000;1982.00000000000;1959.00000000000;1914.00000000000;1943.00000000000;1971.00000000000;1949.00000000000;1976.00000000000;1948.00000000000;1920.00000000000;1929.00000000000;1959.00000000000;1977.00000000000;1970.00000000000;1957.00000000000;1910.00000000000;1951.00000000000;1988.00000000000;1987.00000000000;1955.00000000000;1951.00000000000;1948.00000000000;1945.00000000000;1956.00000000000;1930.00000000000;1949.00000000000;1942.00000000000;1967.00000000000;1949.00000000000;1942.00000000000;1946.00000000000;1934.00000000000;1942.00000000000;1927.00000000000;1942.00000000000;1929.00000000000;1925.00000000000;1909.00000000000
COMMAND 1 SAMPLE 1
Accel X : 1004.00000000000;958.000000000000;972.000000000000;973.000000000000;985.000000000000;992.000000000000;986.000000000000;1003.00000000000;998.000000000000;1004.00000000000;976.000000000000;990.000000000000;988.000000000000;954.000000000000;994.000000000000;993.000000000000;1005.00000000000;971.000000000000;953.000000000000;982.000000000000;962.000000000000;973.000000000000;966.000000000000;985.000000000000;974.000000000000;989.000000000000;954.000000000000;989.000000000000;963.000000000000;1000.00000000000;986.000000000000;983.000000000000;992.000000000000;982.000000000000;1010.00000000000;992.000000000000;992.000000000000;985.000000000000;949.000000000000;923.000000000000;944.000000000000;969.000000000000;923.000000000000;994.000000000000;909.000000000000;900.000000000000;789.000000000000;808.000000000000;810.000000000000;911.000000000000;869.000000000000;820.000000000000;760.000000000000;728.000000000000;851.000000000000;898.000000000000;948.000000000000;970.000000000000;1120.00000000000;1191.00000000000;1236.00000000000;1275.00000000000;1384.00000000000;1448.00000000000;1505.00000000000;1449.00000000000;1631.00000000000;1869.00000000000;1967.00000000000;2195.00000000000;2212.00000000000;2183.00000000000;2090.00000000000;1965.00000000000;1925.00000000000;1798.00000000000;1842.00000000000;1766.00000000000;1748.00000000000;1789.00000000000;1879.00000000000;1930.00000000000;1838.00000000000;1675.00000000000;1387.00000000000;1236.00000000000;1340.00000000000;1530.00000000000;1490.00000000000;1074.00000000000;614.000000000000;642.000000000000;1216.00000000000;1474.00000000000;893.000000000000;12.0000000000000;13.0000000000000;451.000000000000;788.000000000000;857.000000000000;843.000000000000;842.000000000000;851.000000000000;868.000000000000;916.000000000000;1004.00000000000;1027.00000000000;1025.00000000000;1014.00000000000;975.000000000000;984.000000000000;1008.00000000000;1000.00000000000;1018.00000000000;1043.00000000000;1048.00000000000;1043.00000000000;1006.00000000000;1019.00000000000;998.000000000000;991.000000000000;1034.00000000000;1032.00000000000;1037.00000000000;1021.00000000000;1005.00000000000;1014.00000000000;1002.00000000000;1005.00000000000;999.000000000000;971.000000000000;1000.00000000000;979.000000000000;966.000000000000;986.000000000000;1005.00000000000;973.000000000000;976.000000000000;981.000000000000;985.000000000000;969.000000000000;990.000000000000;982.000000000000;1012.00000000000;999.000000000000;995.000000000000;979.000000000000;999.000000000000;999.000000000000;975.000000000000
Accel Y : 2215.00000000000;2219.00000000000;2222.00000000000;2229.00000000000;2217.00000000000;2212.00000000000;2212.00000000000;2221.00000000000;2213.00000000000;2220.00000000000;2206.00000000000;2223.00000000000;2223.00000000000;2224.00000000000;2212.00000000000;2229.00000000000;2219.00000000000;2217.00000000000;2236.00000000000;2225.00000000000;2211.00000000000;2223.00000000000;2208.00000000000;2218.00000000000;2216.00000000000;2216.00000000000;2238.00000000000;2215.00000000000;2221.00000000000;2209.00000000000;2211.00000000000;2214.00000000000;2211.00000000000;2188.00000000000;2213.00000000000;2214.00000000000;2206.00000000000;2198.00000000000;2201.00000000000;2205.00000000000;2191.00000000000;2195.00000000000;2172.00000000000;2163.00000000000;2180.00000000000;2120.00000000000;2151.00000000000;2099.00000000000;2095.00000000000;2007.00000000000;2013.00000000000;2012.00000000000;1963.00000000000;1980.00000000000;1940.00000000000;1907.00000000000;1855.00000000000;1838.00000000000;1801.00000000000;1740.00000000000;1715.00000000000;1721.00000000000;1724.00000000000;1762.00000000000;1781.00000000000;1775.00000000000;1835.00000000000;1783.00000000000;1568.00000000000;1629.00000000000;1733.00000000000;1666.00000000000;1636.00000000000;1658.00000000000;1611.00000000000;1525.00000000000;1605.00000000000;1641.00000000000;1670.00000000000;1604.00000000000;1560.00000000000;1567.00000000000;1613.00000000000;1792.00000000000;1723.00000000000;1619.00000000000;1459.00000000000;1488.00000000000;1717.00000000000;1919.00000000000;1954.00000000000;1986.00000000000;2027.00000000000;2175.00000000000;2708.00000000000;2773.00000000000;2604.00000000000;2393.00000000000;2319.00000000000;2316.00000000000;2343.00000000000;2332.00000000000;2332.00000000000;2349.00000000000;2338.00000000000;2322.00000000000;2286.00000000000;2313.00000000000;2325.00000000000;2328.00000000000;2346.00000000000;2327.00000000000;2319.00000000000;2315.00000000000;2310.00000000000;2283.00000000000;2287.00000000000;2300.00000000000;2280.00000000000;2290.00000000000;2269.00000000000;2260.00000000000;2281.00000000000;2269.00000000000;2267.00000000000;2261.00000000000;2256.00000000000;2297.00000000000;2253.00000000000;2284.00000000000;2267.00000000000;2273.00000000000;2274.00000000000;2273.00000000000;2271.00000000000;2261.00000000000;2254.00000000000;2270.00000000000;2251.00000000000;2262.00000000000;2240.00000000000;2243.00000000000;2259.00000000000;2259.00000000000;2251.00000000000;2251.00000000000;2252.00000000000;2268.00000000000;2240.00000000000;2262.00000000000
Accel Z : 1817.00000000000;1831.00000000000;1851.00000000000;1819.00000000000;1830.00000000000;1831.00000000000;1843.00000000000;1845.00000000000;1819.00000000000;1823.00000000000;1823.00000000000;1832.00000000000;1810.00000000000;1839.00000000000;1832.00000000000;1819.00000000000;1835.00000000000;1829.00000000000;1843.00000000000;1820.00000000000;1812.00000000000;1829.00000000000;1823.00000000000;1849.00000000000;1838.00000000000;1812.00000000000;1830.00000000000;1795.00000000000;1807.00000000000;1809.00000000000;1812.00000000000;1810.00000000000;1817.00000000000;1818.00000000000;1820.00000000000;1815.00000000000;1807.00000000000;1820.00000000000;1763.00000000000;1755.00000000000;1748.00000000000;1745.00000000000;1751.00000000000;1696.00000000000;1660.00000000000;1585.00000000000;1525.00000000000;1501.00000000000;1463.00000000000;1440.00000000000;1270.00000000000;1149.00000000000;1111.00000000000;1060.00000000000;1007.00000000000;965.000000000000;897.000000000000;786.000000000000;800.000000000000;721.000000000000;703.000000000000;823.000000000000;900.000000000000;1069.00000000000;1360.00000000000;1784.00000000000;2201.00000000000;2157.00000000000;2101.00000000000;2329.00000000000;2397.00000000000;2263.00000000000;2112.00000000000;1893.00000000000;1687.00000000000;1614.00000000000;1864.00000000000;2013.00000000000;2005.00000000000;1970.00000000000;1798.00000000000;1663.00000000000;1632.00000000000;1604.00000000000;1431.00000000000;1104.00000000000;979.000000000000;958.000000000000;872.000000000000;976.000000000000;1122.00000000000;1166.00000000000;1546.00000000000;1835.00000000000;1814.00000000000;1894.00000000000;2078.00000000000;2048.00000000000;2031.00000000000;2042.00000000000;2063.00000000000;2055.00000000000;2040.00000000000;2031.00000000000;1979.00000000000;1995.00000000000;1961.00000000000;1918.00000000000;1925.00000000000;1879.00000000000;1878.00000000000;1871.00000000000;1862.00000000000;1858.00000000000;1861.00000000000;1872.00000000000;1840.00000000000;1835.00000000000;1855.00000000000;1865.00000000000;1881.00000000000;1897.00000000000;1851.00000000000;1866.00000000000;1887.00000000000;1875.00000000000;1877.00000000000;1893.00000000000;1889.00000000000;1862.00000000000;1865.00000000000;1870.00000000000;1863.00000000000;1881.00000000000;1877.00000000000;1866.00000000000;1879.00000000000;1876.00000000000;1888.00000000000;1848.00000000000;1874.00000000000;1832.00000000000;1851.00000000000;1851.00000000000;1830.00000000000;1845.00000000000;1843.00000000000;1839.00000000000;1839.00000000000;1841.00000000000
Gyro X : 1004.00000000000;958.000000000000;972.000000000000;973.000000000000;985.000000000000;992.000000000000;986.000000000000;1003.00000000000;998.000000000000;1004.00000000000;976.000000000000;990.000000000000;988.000000000000;954.000000000000;994.000000000000;993.000000000000;1005.00000000000;971.000000000000;953.000000000000;982.000000000000;962.000000000000;973.000000000000;966.000000000000;985.000000000000;974.000000000000;989.000000000000;954.000000000000;989.000000000000;963.000000000000;1000.00000000000;986.000000000000;983.000000000000;992.000000000000;982.000000000000;1010.00000000000;992.000000000000;992.000000000000;985.000000000000;949.000000000000;923.000000000000;944.000000000000;969.000000000000;923.000000000000;994.000000000000;909.000000000000;900.000000000000;789.000000000000;808.000000000000;810.000000000000;911.000000000000;869.000000000000;820.000000000000;760.000000000000;728.000000000000;851.000000000000;898.000000000000;948.000000000000;970.000000000000;1120.00000000000;1191.00000000000;1236.00000000000;1275.00000000000;1384.00000000000;1448.00000000000;1505.00000000000;1449.00000000000;1631.00000000000;1869.00000000000;1967.00000000000;2195.00000000000;2212.00000000000;2183.00000000000;2090.00000000000;1965.00000000000;1925.00000000000;1798.00000000000;1842.00000000000;1766.00000000000;1748.00000000000;1789.00000000000;1879.00000000000;1930.00000000000;1838.00000000000;1675.00000000000;1387.00000000000;1236.00000000000;1340.00000000000;1530.00000000000;1490.00000000000;1074.00000000000;614.000000000000;642.000000000000;1216.00000000000;1474.00000000000;893.000000000000;12.0000000000000;13.0000000000000;451.000000000000;788.000000000000;857.000000000000;843.000000000000;842.000000000000;851.000000000000;868.000000000000;916.000000000000;1004.00000000000;1027.00000000000;1025.00000000000;1014.00000000000;975.000000000000;984.000000000000;1008.00000000000;1000.00000000000;1018.00000000000;1043.00000000000;1048.00000000000;1043.00000000000;1006.00000000000;1019.00000000000;998.000000000000;991.000000000000;1034.00000000000;1032.00000000000;1037.00000000000;1021.00000000000;1005.00000000000;1014.00000000000;1002.00000000000;1005.00000000000;999.000000000000;971.000000000000;1000.00000000000;979.000000000000;966.000000000000;986.000000000000;1005.00000000000;973.000000000000;976.000000000000;981.000000000000;985.000000000000;969.000000000000;990.000000000000;982.000000000000;1012.00000000000;999.000000000000;995.000000000000;979.000000000000;999.000000000000;999.000000000000;975.000000000000
Gyro Y : 2215.00000000000;2219.00000000000;2222.00000000000;2229.00000000000;2217.00000000000;2212.00000000000;2212.00000000000;2221.00000000000;2213.00000000000;2220.00000000000;2206.00000000000;2223.00000000000;2223.00000000000;2224.00000000000;2212.00000000000;2229.00000000000;2219.00000000000;2217.00000000000;2236.00000000000;2225.00000000000;2211.00000000000;2223.00000000000;2208.00000000000;2218.00000000000;2216.00000000000;2216.00000000000;2238.00000000000;2215.00000000000;2221.00000000000;2209.00000000000;2211.00000000000;2214.00000000000;2211.00000000000;2188.00000000000;2213.00000000000;2214.00000000000;2206.00000000000;2198.00000000000;2201.00000000000;2205.00000000000;2191.00000000000;2195.00000000000;2172.00000000000;2163.00000000000;2180.00000000000;2120.00000000000;2151.00000000000;2099.00000000000;2095.00000000000;2007.00000000000;2013.00000000000;2012.00000000000;1963.00000000000;1980.00000000000;1940.00000000000;1907.00000000000;1855.00000000000;1838.00000000000;1801.00000000000;1740.00000000000;1715.00000000000;1721.00000000000;1724.00000000000;1762.00000000000;1781.00000000000;1775.00000000000;1835.00000000000;1783.00000000000;1568.00000000000;1629.00000000000;1733.00000000000;1666.00000000000;1636.00000000000;1658.00000000000;1611.00000000000;1525.00000000000;1605.00000000000;1641.00000000000;1670.00000000000;1604.00000000000;1560.00000000000;1567.00000000000;1613.00000000000;1792.00000000000;1723.00000000000;1619.00000000000;1459.00000000000;1488.00000000000;1717.00000000000;1919.00000000000;1954.00000000000;1986.00000000000;2027.00000000000;2175.00000000000;2708.00000000000;2773.00000000000;2604.00000000000;2393.00000000000;2319.00000000000;2316.00000000000;2343.00000000000;2332.00000000000;2332.00000000000;2349.00000000000;2338.00000000000;2322.00000000000;2286.00000000000;2313.00000000000;2325.00000000000;2328.00000000000;2346.00000000000;2327.00000000000;2319.00000000000;2315.00000000000;2310.00000000000;2283.00000000000;2287.00000000000;2300.00000000000;2280.00000000000;2290.00000000000;2269.00000000000;2260.00000000000;2281.00000000000;2269.00000000000;2267.00000000000;2261.00000000000;2256.00000000000;2297.00000000000;2253.00000000000;2284.00000000000;2267.00000000000;2273.00000000000;2274.00000000000;2273.00000000000;2271.00000000000;2261.00000000000;2254.00000000000;2270.00000000000;2251.00000000000;2262.00000000000;2240.00000000000;2243.00000000000;2259.00000000000;2259.00000000000;2251.00000000000;2251.00000000000;2252.00000000000;2268.00000000000;2240.00000000000;2262.00000000000
Gyro Z : 1817.00000000000;1831.00000000000;1851.00000000000;1819.00000000000;1830.00000000000;1831.00000000000;1843.00000000000;1845.00000000000;1819.00000000000;1823.00000000000;1823.00000000000;1832.00000000000;1810.00000000000;1839.00000000000;1832.00000000000;1819.00000000000;1835.00000000000;1829.00000000000;1843.00000000000;1820.00000000000;1812.00000000000;1829.00000000000;1823.00000000000;1849.00000000000;1838.00000000000;1812.00000000000;1830.00000000000;1795.00000000000;1807.00000000000;1809.00000000000;1812.00000000000;1810.00000000000;1817.00000000000;1818.00000000000;1820.00000000000;1815.00000000000;1807.00000000000;1820.00000000000;1763.00000000000;1755.00000000000;1748.00000000000;1745.00000000000;1751.00000000000;1696.00000000000;1660.00000000000;1585.00000000000;1525.00000000000;1501.00000000000;1463.00000000000;1440.00000000000;1270.00000000000;1149.00000000000;1111.00000000000;1060.00000000000;1007.00000000000;965.000000000000;897.000000000000;786.000000000000;800.000000000000;721.000000000000;703.000000000000;823.000000000000;900.000000000000;1069.00000000000;1360.00000000000;1784.00000000000;2201.00000000000;2157.00000000000;2101.00000000000;2329.00000000000;2397.00000000000;2263.00000000000;2112.00000000000;1893.00000000000;1687.00000000000;1614.00000000000;1864.00000000000;2013.00000000000;2005.00000000000;1970.00000000000;1798.00000000000;1663.00000000000;1632.00000000000;1604.00000000000;1431.00000000000;1104.00000000000;979.000000000000;958.000000000000;872.000000000000;976.000000000000;1122.00000000000;1166.00000000000;1546.00000000000;1835.00000000000;1814.00000000000;1894.00000000000;2078.00000000000;2048.00000000000;2031.00000000000;2042.00000000000;2063.00000000000;2055.00000000000;2040.00000000000;2031.00000000000;1979.00000000000;1995.00000000000;1961.00000000000;1918.00000000000;1925.00000000000;1879.00000000000;1878.00000000000;1871.00000000000;1862.00000000000;1858.00000000000;1861.00000000000;1872.00000000000;1840.00000000000;1835.00000000000;1855.00000000000;1865.00000000000;1881.00000000000;1897.00000000000;1851.00000000000;1866.00000000000;1887.00000000000;1875.00000000000;1877.00000000000;1893.00000000000;1889.00000000000;1862.00000000000;1865.00000000000;1870.00000000000;1863.00000000000;1881.00000000000;1877.00000000000;1866.00000000000;1879.00000000000;1876.00000000000;1888.00000000000;1848.00000000000;1874.00000000000;1832.00000000000;1851.00000000000;1851.00000000000;1830.00000000000;1845.00000000000;1843.00000000000;1839.00000000000;1839.00000000000;1841.00000000000
COMMAND 1 SAMPLE 1
Accel X : 987.000000000000;975.000000000000;964.000000000000;963.000000000000;988.000000000000;990.000000000000;984.000000000000;988.000000000000;979.000000000000;990.000000000000;979.000000000000;1000.00000000000;975.000000000000;959.000000000000;985.000000000000;961.000000000000;995.000000000000;989.000000000000;995.000000000000;1007.00000000000;1005.00000000000;954.000000000000;965.000000000000;969.000000000000;981.000000000000;967.000000000000;968.000000000000;991.000000000000;963.000000000000;971.000000000000;975.000000000000;991.000000000000;988.000000000000;955.000000000000;956.000000000000;916.000000000000;888.000000000000;817.000000000000;656.000000000000;588.000000000000;610.000000000000;651.000000000000;630.000000000000;561.000000000000;680.000000000000;694.000000000000;704.000000000000;927.000000000000;946.000000000000;1106.00000000000;1093.00000000000;1286.00000000000;1407.00000000000;1322.00000000000;1431.00000000000;1537.00000000000;1865.00000000000;2115.00000000000;1955.00000000000;2204.00000000000;2303.00000000000;2124.00000000000;1961.00000000000;1776.00000000000;1814.00000000000;1791.00000000000;1829.00000000000;1728.00000000000;1763.00000000000;1820.00000000000;1885.00000000000;1853.00000000000;1739.00000000000;1638.00000000000;1516.00000000000;1561.00000000000;1480.00000000000;1259.00000000000;1115.00000000000;905.000000000000;880.000000000000;878.000000000000;830.000000000000;769.000000000000;718.000000000000;689.000000000000;534.000000000000;493.000000000000;525.000000000000;596.000000000000;804.000000000000;897.000000000000;801.000000000000;864.000000000000;897.000000000000;888.000000000000;964.000000000000;1000.00000000000;932.000000000000;920.000000000000;983.000000000000;965.000000000000;1028.00000000000;1063.00000000000;989.000000000000;950.000000000000;975.000000000000;962.000000000000;984.000000000000;990.000000000000;974.000000000000;987.000000000000;971.000000000000;987.000000000000;1001.00000000000;983.000000000000;974.000000000000;992.000000000000;975.000000000000;1016.00000000000;997.000000000000;987.000000000000;978.000000000000;983.000000000000;1007.00000000000;991.000000000000;998.000000000000;1001.00000000000;1013.00000000000;1003.00000000000;995.000000000000;969.000000000000;978.000000000000;971.000000000000;969.000000000000;988.000000000000;977.000000000000;988.000000000000;960.000000000000;966.000000000000;975.000000000000;973.000000000000;982.000000000000;993.000000000000;990.000000000000;969.000000000000;953.000000000000;978.000000000000;976.000000000000;975.000000000000
Accel Y : 2200.00000000000;2225.00000000000;2203.00000000000;2213.00000000000;2206.00000000000;2223.00000000000;2224.00000000000;2206.00000000000;2200.00000000000;2207.00000000000;2218.00000000000;2199.00000000000;2208.00000000000;2199.00000000000;2206.00000000000;2198.00000000000;2197.00000000000;2208.00000000000;2211.00000000000;2209.00000000000;2207.00000000000;2200.00000000000;2195.00000000000;2204.00000000000;2201.00000000000;2196.00000000000;2173.00000000000;2171.00000000000;2183.00000000000;2200.00000000000;2169.00000000000;2170.00000000000;2136.00000000000;2135.00000000000;2143.00000000000;2121.00000000000;2075.00000000000;2070.00000000000;2088.00000000000;2133.00000000000;2110.00000000000;2073.00000000000;2050.00000000000;2035.00000000000;2021.00000000000;1986.00000000000;1966.00000000000;1906.00000000000;1825.00000000000;1823.00000000000;1828.00000000000;1800.00000000000;1758.00000000000;1735.00000000000;1789.00000000000;1816.00000000000;1824.00000000000;1707.00000000000;1577.00000000000;1553.00000000000;1628.00000000000;1612.00000000000;1614.00000000000;1578.00000000000;1605.00000000000;1666.00000000000;1729.00000000000;1752.00000000000;1676.00000000000;1622.00000000000;1629.00000000000;1711.00000000000;1796.00000000000;1724.00000000000;1604.00000000000;1565.00000000000;1628.00000000000;1687.00000000000;1711.00000000000;1798.00000000000;1934.00000000000;1986.00000000000;2054.00000000000;2218.00000000000;2190.00000000000;2300.00000000000;2318.00000000000;2302.00000000000;2249.00000000000;2175.00000000000;2134.00000000000;2148.00000000000;2154.00000000000;2224.00000000000;2187.00000000000;2207.00000000000;2215.00000000000;2266.00000000000;2293.00000000000;2287.00000000000;2280.00000000000;2256.00000000000;2256.00000000000;2271.00000000000;2309.00000000000;2303.00000000000;2272.00000000000;2250.00000000000;2261.00000000000;2274.00000000000;2287.00000000000;2274.00000000000;2274.00000000000;2254.00000000000;2268.00000000000;2269.00000000000;2267.00000000000;2241.00000000000;2276.00000000000;2265.00000000000;2236.00000000000;2265.00000000000;2243.00000000000;2249.00000000000;2254.00000000000;2226.00000000000;2239.00000000000;2239.00000000000;2215.00000000000;2243.00000000000;2258.00000000000;2252.00000000000;2254.00000000000;2233.00000000000;2225.00000000000;2238.00000000000;2242.00000000000;2252.00000000000;2231.00000000000;2259.00000000000;2254.00000000000;2250.00000000000;2248.00000000000;2257.00000000000;2249.00000000000;2245.00000000000;2245.00000000000;2246.00000000000;2250.00000000000;2230.00000000000
Accel Z : 1787.00000000000;1801.00000000000;1806.00000000000;1818.00000000000;1822.00000000000;1821.00000000000;1803.00000000000;1797.00000000000;1795.00000000000;1790.00000000000;1785.00000000000;1803.00000000000;1778.00000000000;1805.00000000000;1796.00000000000;1785.00000000000;1797.00000000000;1799.00000000000;1782.00000000000;1785.00000000000;1796.00000000000;1764.00000000000;1812.00000000000;1773.00000000000;1779.00000000000;1786.00000000000;1782.00000000000;1778.00000000000;1771.00000000000;1771.00000000000;1790.00000000000;1756.00000000000;1775.00000000000;1756.00000000000;1753.00000000000;1668.00000000000;1647.00000000000;1587.00000000000;1492.00000000000;1476.00000000000;1427.00000000000;1348.00000000000;1232.00000000000;1181.00000000000;1177.00000000000;1081.00000000000;1026.00000000000;1142.00000000000;1066.00000000000;1011.00000000000;927.000000000000;977.000000000000;1045.00000000000;1248.00000000000;1570.00000000000;1956.00000000000;2336.00000000000;2415.00000000000;2150.00000000000;2157.00000000000;2257.00000000000;2124.00000000000;2029.00000000000;1898.00000000000;1911.00000000000;1974.00000000000;2080.00000000000;2113.00000000000;2004.00000000000;1861.00000000000;1775.00000000000;1674.00000000000;1586.00000000000;1513.00000000000;1381.00000000000;1302.00000000000;1082.00000000000;805.000000000000;824.000000000000;818.000000000000;887.000000000000;915.000000000000;1021.00000000000;1328.00000000000;1370.00000000000;1476.00000000000;1523.00000000000;1602.00000000000;1612.00000000000;1595.00000000000;1646.00000000000;1723.00000000000;1655.00000000000;1680.00000000000;1671.00000000000;1642.00000000000;1697.00000000000;1733.00000000000;1689.00000000000;1691.00000000000;1669.00000000000;1657.00000000000;1678.00000000000;1706.00000000000;1694.00000000000;1697.00000000000;1674.00000000000;1697.00000000000;1705.00000000000;1717.00000000000;1719.00000000000;1733.00000000000;1715.00000000000;1702.00000000000;1720.00000000000;1736.00000000000;1706.00000000000;1727.00000000000;1739.00000000000;1740.00000000000;1724.00000000000;1737.00000000000;1733.00000000000;1724.00000000000;1752.00000000000;1728.00000000000;1751.00000000000;1695.00000000000;1706.00000000000;1734.00000000000;1717.00000000000;1746.00000000000;1721.00000000000;1703.00000000000;1716.00000000000;1726.00000000000;1707.00000000000;1715.00000000000;1716.00000000000;1721.00000000000;1717.00000000000;1725.00000000000;1719.00000000000;1754.00000000000;1730.00000000000;1737.00000000000;1742.00000000000;1732.00000000000;1710.00000000000;1711.00000000000
Gyro X : 987.000000000000;975.000000000000;964.000000000000;963.000000000000;988.000000000000;990.000000000000;984.000000000000;988.000000000000;979.000000000000;990.000000000000;979.000000000000;1000.00000000000;975.000000000000;959.000000000000;985.000000000000;961.000000000000;995.000000000000;989.000000000000;995.000000000000;1007.00000000000;1005.00000000000;954.000000000000;965.000000000000;969.000000000000;981.000000000000;967.000000000000;968.000000000000;991.000000000000;963.000000000000;971.000000000000;975.000000000000;991.000000000000;988.000000000000;955.000000000000;956.000000000000;916.000000000000;888.000000000000;817.000000000000;656.000000000000;588.000000000000;610.000000000000;651.000000000000;630.000000000000;561.000000000000;680.000000000000;694.000000000000;704.000000000000;927.000000000000;946.000000000000;1106.00000000000;1093.00000000000;1286.00000000000;1407.00000000000;1322.00000000000;1431.00000000000;1537.00000000000;1865.00000000000;2115.00000000000;1955.00000000000;2204.00000000000;2303.00000000000;2124.00000000000;1961.00000000000;1776.00000000000;1814.00000000000;1791.00000000000;1829.00000000000;1728.00000000000;1763.00000000000;1820.00000000000;1885.00000000000;1853.00000000000;1739.00000000000;1638.00000000000;1516.00000000000;1561.00000000000;1480.00000000000;1259.00000000000;1115.00000000000;905.000000000000;880.000000000000;878.000000000000;830.000000000000;769.000000000000;718.000000000000;689.000000000000;534.000000000000;493.000000000000;525.000000000000;596.000000000000;804.000000000000;897.000000000000;801.000000000000;864.000000000000;897.000000000000;888.000000000000;964.000000000000;1000.00000000000;932.000000000000;920.000000000000;983.000000000000;965.000000000000;1028.00000000000;1063.00000000000;989.000000000000;950.000000000000;975.000000000000;962.000000000000;984.000000000000;990.000000000000;974.000000000000;987.000000000000;971.000000000000;987.000000000000;1001.00000000000;983.000000000000;974.000000000000;992.000000000000;975.000000000000;1016.00000000000;997.000000000000;987.000000000000;978.000000000000;983.000000000000;1007.00000000000;991.000000000000;998.000000000000;1001.00000000000;1013.00000000000;1003.00000000000;995.000000000000;969.000000000000;978.000000000000;971.000000000000;969.000000000000;988.000000000000;977.000000000000;988.000000000000;960.000000000000;966.000000000000;975.000000000000;973.000000000000;982.000000000000;993.000000000000;990.000000000000;969.000000000000;953.000000000000;978.000000000000;976.000000000000;975.000000000000
Gyro Y : 2200.00000000000;2225.00000000000;2203.00000000000;2213.00000000000;2206.00000000000;2223.00000000000;2224.00000000000;2206.00000000000;2200.00000000000;2207.00000000000;2218.00000000000;2199.00000000000;2208.00000000000;2199.00000000000;2206.00000000000;2198.00000000000;2197.00000000000;2208.00000000000;2211.00000000000;2209.00000000000;2207.00000000000;2200.00000000000;2195.00000000000;2204.00000000000;2201.00000000000;2196.00000000000;2173.00000000000;2171.00000000000;2183.00000000000;2200.00000000000;2169.00000000000;2170.00000000000;2136.00000000000;2135.00000000000;2143.00000000000;2121.00000000000;2075.00000000000;2070.00000000000;2088.00000000000;2133.00000000000;2110.00000000000;2073.00000000000;2050.00000000000;2035.00000000000;2021.00000000000;1986.00000000000;1966.00000000000;1906.00000000000;1825.00000000000;1823.00000000000;1828.00000000000;1800.00000000000;1758.00000000000;1735.00000000000;1789.00000000000;1816.00000000000;1824.00000000000;1707.00000000000;1577.00000000000;1553.00000000000;1628.00000000000;1612.00000000000;1614.00000000000;1578.00000000000;1605.00000000000;1666.00000000000;1729.00000000000;1752.00000000000;1676.00000000000;1622.00000000000;1629.00000000000;1711.00000000000;1796.00000000000;1724.00000000000;1604.00000000000;1565.00000000000;1628.00000000000;1687.00000000000;1711.00000000000;1798.00000000000;1934.00000000000;1986.00000000000;2054.00000000000;2218.00000000000;2190.00000000000;2300.00000000000;2318.00000000000;2302.00000000000;2249.00000000000;2175.00000000000;2134.00000000000;2148.00000000000;2154.00000000000;2224.00000000000;2187.00000000000;2207.00000000000;2215.00000000000;2266.00000000000;2293.00000000000;2287.00000000000;2280.00000000000;2256.00000000000;2256.00000000000;2271.00000000000;2309.00000000000;2303.00000000000;2272.00000000000;2250.00000000000;2261.00000000000;2274.00000000000;2287.00000000000;2274.00000000000;2274.00000000000;2254.00000000000;2268.00000000000;2269.00000000000;2267.00000000000;2241.00000000000;2276.00000000000;2265.00000000000;2236.00000000000;2265.00000000000;2243.00000000000;2249.00000000000;2254.00000000000;2226.00000000000;2239.00000000000;2239.00000000000;2215.00000000000;2243.00000000000;2258.00000000000;2252.00000000000;2254.00000000000;2233.00000000000;2225.00000000000;2238.00000000000;2242.00000000000;2252.00000000000;2231.00000000000;2259.00000000000;2254.00000000000;2250.00000000000;2248.00000000000;2257.00000000000;2249.00000000000;2245.00000000000;2245.00000000000;2246.00000000000;2250.00000000000;2230.00000000000
Gyro Z : 1787.00000000000;1801.00000000000;1806.00000000000;1818.00000000000;1822.00000000000;1821.00000000000;1803.00000000000;1797.00000000000;1795.00000000000;1790.00000000000;1785.00000000000;1803.00000000000;1778.00000000000;1805.00000000000;1796.00000000000;1785.00000000000;1797.00000000000;1799.00000000000;1782.00000000000;1785.00000000000;1796.00000000000;1764.00000000000;1812.00000000000;1773.00000000000;1779.00000000000;1786.00000000000;1782.00000000000;1778.00000000000;1771.00000000000;1771.00000000000;1790.00000000000;1756.00000000000;1775.00000000000;1756.00000000000;1753.00000000000;1668.00000000000;1647.00000000000;1587.00000000000;1492.00000000000;1476.00000000000;1427.00000000000;1348.00000000000;1232.00000000000;1181.00000000000;1177.00000000000;1081.00000000000;1026.00000000000;1142.00000000000;1066.00000000000;1011.00000000000;927.000000000000;977.000000000000;1045.00000000000;1248.00000000000;1570.00000000000;1956.00000000000;2336.00000000000;2415.00000000000;2150.00000000000;2157.00000000000;2257.00000000000;2124.00000000000;2029.00000000000;1898.00000000000;1911.00000000000;1974.00000000000;2080.00000000000;2113.00000000000;2004.00000000000;1861.00000000000;1775.00000000000;1674.00000000000;1586.00000000000;1513.00000000000;1381.00000000000;1302.00000000000;1082.00000000000;805.000000000000;824.000000000000;818.000000000000;887.000000000000;915.000000000000;1021.00000000000;1328.00000000000;1370.00000000000;1476.00000000000;1523.00000000000;1602.00000000000;1612.00000000000;1595.00000000000;1646.00000000000;1723.00000000000;1655.00000000000;1680.00000000000;1671.00000000000;1642.00000000000;1697.00000000000;1733.00000000000;1689.00000000000;1691.00000000000;1669.00000000000;1657.00000000000;1678.00000000000;1706.00000000000;1694.00000000000;1697.00000000000;1674.00000000000;1697.00000000000;1705.00000000000;1717.00000000000;1719.00000000000;1733.00000000000;1715.00000000000;1702.00000000000;1720.00000000000;1736.00000000000;1706.00000000000;1727.00000000000;1739.00000000000;1740.00000000000;1724.00000000000;1737.00000000000;1733.00000000000;1724.00000000000;1752.00000000000;1728.00000000000;1751.00000000000;1695.00000000000;1706.00000000000;1734.00000000000;1717.00000000000;1746.00000000000;1721.00000000000;1703.00000000000;1716.00000000000;1726.00000000000;1707.00000000000;1715.00000000000;1716.00000000000;1721.00000000000;1717.00000000000;1725.00000000000;1719.00000000000;1754.00000000000;1730.00000000000;1737.00000000000;1742.00000000000;1732.00000000000;1710.00000000000;1711.00000000000
COMMAND 1 SAMPLE 1
Accel X : 996.000000000000;962.000000000000;993.000000000000;978.000000000000;985.000000000000;982.000000000000;996.000000000000;975.000000000000;974.000000000000;969.000000000000;980.000000000000;995.000000000000;961.000000000000;984.000000000000;975.000000000000;966.000000000000;990.000000000000;981.000000000000;1000.00000000000;983.000000000000;978.000000000000;946.000000000000;959.000000000000;973.000000000000;1008.00000000000;1060.00000000000;959.000000000000;862.000000000000;855.000000000000;956.000000000000;953.000000000000;1016.00000000000;997.000000000000;800.000000000000;770.000000000000;920.000000000000;1058.00000000000;939.000000000000;905.000000000000;723.000000000000;649.000000000000;822.000000000000;855.000000000000;944.000000000000;1041.00000000000;1076.00000000000;1167.00000000000;1111.00000000000;1217.00000000000;1286.00000000000;1375.00000000000;1513.00000000000;1586.00000000000;1620.00000000000;1707.00000000000;1717.00000000000;1779.00000000000;1852.00000000000;1945.00000000000;2135.00000000000;2339.00000000000;2380.00000000000;2369.00000000000;2338.00000000000;2191.00000000000;2056.00000000000;1954.00000000000;1914.00000000000;1900.00000000000;1829.00000000000;1817.00000000000;1930.00000000000;1904.00000000000;1858.00000000000;1888.00000000000;1928.00000000000;1945.00000000000;1914.00000000000;1907.00000000000;1931.00000000000;1950.00000000000;2023.00000000000;2017.00000000000;2014.00000000000;2014.00000000000;2003.00000000000;1974.00000000000;1947.00000000000;1883.00000000000;1887.00000000000;1873.00000000000;1789.00000000000;1764.00000000000;1731.00000000000;1620.00000000000;1300.00000000000;1085.00000000000;859.000000000000;862.000000000000;797.000000000000;337.000000000000;29.0000000000000;197.000000000000;496.000000000000;846.000000000000;758.000000000000;761.000000000000;697.000000000000;850.000000000000;857.000000000000;896.000000000000;903.000000000000;950.000000000000;974.000000000000;951.000000000000;927.000000000000;906.000000000000;943.000000000000;976.000000000000;991.000000000000;978.000000000000;976.000000000000;949.000000000000;939.000000000000;979.000000000000;1004.00000000000;1036.00000000000;999.000000000000;988.000000000000;1003.00000000000;1005.00000000000;1021.00000000000;1037.00000000000;1017.00000000000;982.000000000000;988.000000000000;963.000000000000;1005.00000000000;1005.00000000000;1001.00000000000;991.000000000000;993.000000000000;983.000000000000;973.000000000000;972.000000000000;978.000000000000;995.000000000000;986.000000000000;999.000000000000;960.000000000000
Accel Y : 2196.00000000000;2180.00000000000;2179.00000000000;2200.00000000000;2194.00000000000;2188.00000000000;2181.00000000000;2183.00000000000;2205.00000000000;2183.00000000000;2175.00000000000;2180.00000000000;2170.00000000000;2193.00000000000;2205.00000000000;2174.00000000000;2161.00000000000;2197.00000000000;2196.00000000000;2190.00000000000;2183.00000000000;2189.00000000000;2193.00000000000;2177.00000000000;2180.00000000000;2142.00000000000;2155.00000000000;2198.00000000000;2165.00000000000;2162.00000000000;2137.00000000000;2104.00000000000;2117.00000000000;2104.00000000000;2104.00000000000;2078.00000000000;2031.00000000000;1984.00000000000;1958.00000000000;1932.00000000000;1943.00000000000;1978.00000000000;1947.00000000000;1885.00000000000;1842.00000000000;1794.00000000000;1775.00000000000;1785.00000000000;1787.00000000000;1789.00000000000;1807.00000000000;1823.00000000000;1813.00000000000;1825.00000000000;1817.00000000000;1854.00000000000;1852.00000000000;1903.00000000000;1890.00000000000;1874.00000000000;1805.00000000000;1738.00000000000;1661.00000000000;1627.00000000000;1478.00000000000;1478.00000000000;1507.00000000000;1433.00000000000;1423.00000000000;1353.00000000000;1206.00000000000;1118.00000000000;1123.00000000000;1146.00000000000;1082.00000000000;1014.00000000000;1019.00000000000;1116.00000000000;1166.00000000000;1245.00000000000;1281.00000000000;1352.00000000000;1387.00000000000;1400.00000000000;1436.00000000000;1507.00000000000;1535.00000000000;1570.00000000000;1545.00000000000;1543.00000000000;1580.00000000000;1647.00000000000;1618.00000000000;1607.00000000000;1678.00000000000;1800.00000000000;1873.00000000000;2137.00000000000;2191.00000000000;2198.00000000000;2306.00000000000;2330.00000000000;2213.00000000000;2173.00000000000;2172.00000000000;2226.00000000000;2225.00000000000;2237.00000000000;2154.00000000000;2144.00000000000;2197.00000000000;2233.00000000000;2214.00000000000;2239.00000000000;2209.00000000000;2219.00000000000;2230.00000000000;2232.00000000000;2247.00000000000;2221.00000000000;2190.00000000000;2179.00000000000;2191.00000000000;2182.00000000000;2199.00000000000;2160.00000000000;2133.00000000000;2160.00000000000;2162.00000000000;2163.00000000000;2156.00000000000;2137.00000000000;2103.00000000000;2118.00000000000;2115.00000000000;2109.00000000000;2135.00000000000;2114.00000000000;2125.00000000000;2069.00000000000;2087.00000000000;2083.00000000000;2085.00000000000;2086.00000000000;2111.00000000000;2098.00000000000;2107.00000000000;2099.00000000000;2119.00000000000;2119.00000000000
Accel Z : 1744.00000000000;1764.00000000000;1763.00000000000;1734.00000000000;1751.00000000000;1761.00000000000;1767.00000000000;1754.00000000000;1753.00000000000;1747.00000000000;1767.00000000000;1753.00000000000;1732.00000000000;1748.00000000000;1731.00000000000;1721.00000000000;1739.00000000000;1747.00000000000;1716.00000000000;1729.00000000000;1706.00000000000;1698.00000000000;1696.00000000000;1694.00000000000;1643.00000000000;1670.00000000000;1630.00000000000;1594.00000000000;1596.00000000000;1573.00000000000;1576.00000000000;1556.00000000000;1499.00000000000;1440.00000000000;1392.00000000000;1455.00000000000;1418.00000000000;1245.00000000000;1218.00000000000;1119.00000000000;1041.00000000000;997.000000000000;919.000000000000;909.000000000000;791.000000000000;661.000000000000;628.000000000000;553.000000000000;610.000000000000;611.000000000000;574.000000000000;821.000000000000;968.000000000000;1098.00000000000;1378.00000000000;1649.00000000000;1963.00000000000;2430.00000000000;2664.00000000000;2601.00000000000;2431.00000000000;2228.00000000000;2188.00000000000;2086.00000000000;1931.00000000000;1922.00000000000;1926.00000000000;1973.00000000000;2036.00000000000;2050.00000000000;1891.00000000000;1901.00000000000;1884.00000000000;1872.00000000000;1828.00000000000;1775.00000000000;1804.00000000000;1860.00000000000;1895.00000000000;1942.00000000000;1924.00000000000;2015.00000000000;2084.00000000000;2070.00000000000;2066.00000000000;2005.00000000000;1964.00000000000;1868.00000000000;1754.00000000000;1678.00000000000;1595.00000000000;1469.00000000000;1507.00000000000;1565.00000000000;1571.00000000000;1254.00000000000;1234.00000000000;1408.00000000000;1590.00000000000;1627.00000000000;1538.00000000000;1523.00000000000;1634.00000000000;1687.00000000000;1896.00000000000;1903.00000000000;1968.00000000000;1932.00000000000;1965.00000000000;1975.00000000000;1983.00000000000;1980.00000000000;1970.00000000000;1959.00000000000;1948.00000000000;1926.00000000000;1923.00000000000;1932.00000000000;1953.00000000000;1892.00000000000;1911.00000000000;1858.00000000000;1862.00000000000;1864.00000000000;1846.00000000000;1846.00000000000;1823.00000000000;1809.00000000000;1837.00000000000;1844.00000000000;1850.00000000000;1836.00000000000;1819.00000000000;1813.00000000000;1828.00000000000;1805.00000000000;1831.00000000000;1836.00000000000;1809.00000000000;1809.00000000000;1824.00000000000;1794.00000000000;1788.00000000000;1810.00000000000;1796.00000000000;1814.00000000000;1823.00000000000;1806.00000000000;1820.00000000000;1793.00000000000
Gyro X : 996.000000000000;962.000000000000;993.000000000000;978.000000000000;985.000000000000;982.000000000000;996.000000000000;975.000000000000;974.000000000000;969.000000000000;980.000000000000;995.000000000000;961.000000000000;984.000000000000;975.000000000000;966.000000000000;990.000000000000;981.000000000000;1000.00000000000;983.000000000000;978.000000000000;946.000000000000;959.000000000000;973.000000000000;1008.00000000000;1060.00000000000;959.000000000000;862.000000000000;855.000000000000;956.000000000000;953.000000000000;1016.00000000000;997.000000000000;800.000000000000;770.000000000000;920.000000000000;1058.00000000000;939.000000000000;905.000000000000;723.000000000000;649.000000000000;822.000000000000;855.000000000000;944.000000000000;1041.00000000000;1076.00000000000;1167.00000000000;1111.00000000000;1217.00000000000;1286.00000000000;1375.00000000000;1513.00000000000;1586.00000000000;1620.00000000000;1707.00000000000;1717.00000000000;1779.00000000000;1852.00000000000;1945.00000000000;2135.00000000000;2339.00000000000;2380.00000000000;2369.00000000000;2338.00000000000;2191.00000000000;2056.00000000000;1954.00000000000;1914.00000000000;1900.00000000000;1829.00000000000;1817.00000000000;1930.00000000000;1904.00000000000;1858.00000000000;1888.00000000000;1928.00000000000;1945.00000000000;1914.00000000000;1907.00000000000;1931.00000000000;1950.00000000000;2023.00000000000;2017.00000000000;2014.00000000000;2014.00000000000;2003.00000000000;1974.00000000000;1947.00000000000;1883.00000000000;1887.00000000000;1873.00000000000;1789.00000000000;1764.00000000000;1731.00000000000;1620.00000000000;1300.00000000000;1085.00000000000;859.000000000000;862.000000000000;797.000000000000;337.000000000000;29.0000000000000;197.000000000000;496.000000000000;846.000000000000;758.000000000000;761.000000000000;697.000000000000;850.000000000000;857.000000000000;896.000000000000;903.000000000000;950.000000000000;974.000000000000;951.000000000000;927.000000000000;906.000000000000;943.000000000000;976.000000000000;991.000000000000;978.000000000000;976.000000000000;949.000000000000;939.000000000000;979.000000000000;1004.00000000000;1036.00000000000;999.000000000000;988.000000000000;1003.00000000000;1005.00000000000;1021.00000000000;1037.00000000000;1017.00000000000;982.000000000000;988.000000000000;963.000000000000;1005.00000000000;1005.00000000000;1001.00000000000;991.000000000000;993.000000000000;983.000000000000;973.000000000000;972.000000000000;978.000000000000;995.000000000000;986.000000000000;999.000000000000;960.000000000000
Gyro Y : 2196.00000000000;2180.00000000000;2179.00000000000;2200.00000000000;2194.00000000000;2188.00000000000;2181.00000000000;2183.00000000000;2205.00000000000;2183.00000000000;2175.00000000000;2180.00000000000;2170.00000000000;2193.00000000000;2205.00000000000;2174.00000000000;2161.00000000000;2197.00000000000;2196.00000000000;2190.00000000000;2183.00000000000;2189.00000000000;2193.00000000000;2177.00000000000;2180.00000000000;2142.00000000000;2155.00000000000;2198.00000000000;2165.00000000000;2162.00000000000;2137.00000000000;2104.00000000000;2117.00000000000;2104.00000000000;2104.00000000000;2078.00000000000;2031.00000000000;1984.00000000000;1958.00000000000;1932.00000000000;1943.00000000000;1978.00000000000;1947.00000000000;1885.00000000000;1842.00000000000;1794.00000000000;1775.00000000000;1785.00000000000;1787.00000000000;1789.00000000000;1807.00000000000;1823.00000000000;1813.00000000000;1825.00000000000;1817.00000000000;1854.00000000000;1852.00000000000;1903.00000000000;1890.00000000000;1874.00000000000;1805.00000000000;1738.00000000000;1661.00000000000;1627.00000000000;1478.00000000000;1478.00000000000;1507.00000000000;1433.00000000000;1423.00000000000;1353.00000000000;1206.00000000000;1118.00000000000;1123.00000000000;1146.00000000000;1082.00000000000;1014.00000000000;1019.00000000000;1116.00000000000;1166.00000000000;1245.00000000000;1281.00000000000;1352.00000000000;1387.00000000000;1400.00000000000;1436.00000000000;1507.00000000000;1535.00000000000;1570.00000000000;1545.00000000000;1543.00000000000;1580.00000000000;1647.00000000000;1618.00000000000;1607.00000000000;1678.00000000000;1800.00000000000;1873.00000000000;2137.00000000000;2191.00000000000;2198.00000000000;2306.00000000000;2330.00000000000;2213.00000000000;2173.00000000000;2172.00000000000;2226.00000000000;2225.00000000000;2237.00000000000;2154.00000000000;2144.00000000000;2197.00000000000;2233.00000000000;2214.00000000000;2239.00000000000;2209.00000000000;2219.00000000000;2230.00000000000;2232.00000000000;2247.00000000000;2221.00000000000;2190.00000000000;2179.00000000000;2191.00000000000;2182.00000000000;2199.00000000000;2160.00000000000;2133.00000000000;2160.00000000000;2162.00000000000;2163.00000000000;2156.00000000000;2137.00000000000;2103.00000000000;2118.00000000000;2115.00000000000;2109.00000000000;2135.00000000000;2114.00000000000;2125.00000000000;2069.00000000000;2087.00000000000;2083.00000000000;2085.00000000000;2086.00000000000;2111.00000000000;2098.00000000000;2107.00000000000;2099.00000000000;2119.00000000000;2119.00000000000
Gyro Z : 1744.00000000000;1764.00000000000;1763.00000000000;1734.00000000000;1751.00000000000;1761.00000000000;1767.00000000000;1754.00000000000;1753.00000000000;1747.00000000000;1767.00000000000;1753.00000000000;1732.00000000000;1748.00000000000;1731.00000000000;1721.00000000000;1739.00000000000;1747.00000000000;1716.00000000000;1729.00000000000;1706.00000000000;1698.00000000000;1696.00000000000;1694.00000000000;1643.00000000000;1670.00000000000;1630.00000000000;1594.00000000000;1596.00000000000;1573.00000000000;1576.00000000000;1556.00000000000;1499.00000000000;1440.00000000000;1392.00000000000;1455.00000000000;1418.00000000000;1245.00000000000;1218.00000000000;1119.00000000000;1041.00000000000;997.000000000000;919.000000000000;909.000000000000;791.000000000000;661.000000000000;628.000000000000;553.000000000000;610.000000000000;611.000000000000;574.000000000000;821.000000000000;968.000000000000;1098.00000000000;1378.00000000000;1649.00000000000;1963.00000000000;2430.00000000000;2664.00000000000;2601.00000000000;2431.00000000000;2228.00000000000;2188.00000000000;2086.00000000000;1931.00000000000;1922.00000000000;1926.00000000000;1973.00000000000;2036.00000000000;2050.00000000000;1891.00000000000;1901.00000000000;1884.00000000000;1872.00000000000;1828.00000000000;1775.00000000000;1804.00000000000;1860.00000000000;1895.00000000000;1942.00000000000;1924.00000000000;2015.00000000000;2084.00000000000;2070.00000000000;2066.00000000000;2005.00000000000;1964.00000000000;1868.00000000000;1754.00000000000;1678.00000000000;1595.00000000000;1469.00000000000;1507.00000000000;1565.00000000000;1571.00000000000;1254.00000000000;1234.00000000000;1408.00000000000;1590.00000000000;1627.00000000000;1538.00000000000;1523.00000000000;1634.00000000000;1687.00000000000;1896.00000000000;1903.00000000000;1968.00000000000;1932.00000000000;1965.00000000000;1975.00000000000;1983.00000000000;1980.00000000000;1970.00000000000;1959.00000000000;1948.00000000000;1926.00000000000;1923.00000000000;1932.00000000000;1953.00000000000;1892.00000000000;1911.00000000000;1858.00000000000;1862.00000000000;1864.00000000000;1846.00000000000;1846.00000000000;1823.00000000000;1809.00000000000;1837.00000000000;1844.00000000000;1850.00000000000;1836.00000000000;1819.00000000000;1813.00000000000;1828.00000000000;1805.00000000000;1831.00000000000;1836.00000000000;1809.00000000000;1809.00000000000;1824.00000000000;1794.00000000000;1788.00000000000;1810.00000000000;1796.00000000000;1814.00000000000;1823.00000000000;1806.00000000000;1820.00000000000;1793.00000000000
COMMAND 1 SAMPLE 1
Accel X : 978.000000000000;1018.00000000000;996.000000000000;996.000000000000;997.000000000000;959.000000000000;945.000000000000;965.000000000000;995.000000000000;992.000000000000;983.000000000000;948.000000000000;926.000000000000;956.000000000000;984.000000000000;993.000000000000;964.000000000000;971.000000000000;948.000000000000;976.000000000000;987.000000000000;969.000000000000;969.000000000000;984.000000000000;955.000000000000;986.000000000000;991.000000000000;982.000000000000;975.000000000000;974.000000000000;969.000000000000;963.000000000000;981.000000000000;954.000000000000;996.000000000000;988.000000000000;1007.00000000000;1046.00000000000;951.000000000000;921.000000000000;957.000000000000;956.000000000000;864.000000000000;918.000000000000;844.000000000000;765.000000000000;609.000000000000;729.000000000000;810.000000000000;864.000000000000;745.000000000000;808.000000000000;983.000000000000;984.000000000000;1131.00000000000;1244.00000000000;1141.00000000000;1292.00000000000;1264.00000000000;1553.00000000000;1586.00000000000;1664.00000000000;1658.00000000000;1748.00000000000;1726.00000000000;1967.00000000000;2055.00000000000;2093.00000000000;2277.00000000000;2157.00000000000;2042.00000000000;2088.00000000000;2050.00000000000;1957.00000000000;1861.00000000000;1879.00000000000;1862.00000000000;1921.00000000000;1885.00000000000;1922.00000000000;1961.00000000000;1960.00000000000;1914.00000000000;1877.00000000000;1827.00000000000;1821.00000000000;1823.00000000000;1746.00000000000;1646.00000000000;1593.00000000000;1560.00000000000;1486.00000000000;1242.00000000000;1093.00000000000;948.000000000000;1204.00000000000;989.000000000000;627.000000000000;615.000000000000;669.000000000000;652.000000000000;328.000000000000;265.000000000000;405.000000000000;718.000000000000;847.000000000000;821.000000000000;875.000000000000;877.000000000000;906.000000000000;963.000000000000;1006.00000000000;968.000000000000;1008.00000000000;1042.00000000000;1014.00000000000;1030.00000000000;1019.00000000000;1048.00000000000;1047.00000000000;1057.00000000000;1040.00000000000;1036.00000000000;1038.00000000000;1005.00000000000;1031.00000000000;1024.00000000000;1021.00000000000;1024.00000000000;1002.00000000000;992.000000000000;1016.00000000000;1007.00000000000;1001.00000000000;1008.00000000000;997.000000000000;992.000000000000;979.000000000000;1018.00000000000;1032.00000000000;1012.00000000000;1003.00000000000;997.000000000000;999.000000000000;1029.00000000000;990.000000000000;1015.00000000000;989.000000000000;979.000000000000;1010.00000000000
Accel Y : 2173.00000000000;2182.00000000000;2184.00000000000;2170.00000000000;2174.00000000000;2205.00000000000;2176.00000000000;2194.00000000000;2199.00000000000;2220.00000000000;2195.00000000000;2205.00000000000;2205.00000000000;2200.00000000000;2210.00000000000;2205.00000000000;2207.00000000000;2220.00000000000;2213.00000000000;2230.00000000000;2209.00000000000;2219.00000000000;2244.00000000000;2207.00000000000;2225.00000000000;2220.00000000000;2222.00000000000;2215.00000000000;2219.00000000000;2218.00000000000;2232.00000000000;2221.00000000000;2214.00000000000;2201.00000000000;2192.00000000000;2206.00000000000;2211.00000000000;2186.00000000000;2204.00000000000;2158.00000000000;2180.00000000000;2175.00000000000;2122.00000000000;2115.00000000000;2083.00000000000;2058.00000000000;2053.00000000000;2052.00000000000;2026.00000000000;1916.00000000000;1896.00000000000;1901.00000000000;1863.00000000000;1868.00000000000;1860.00000000000;1767.00000000000;1682.00000000000;1725.00000000000;1767.00000000000;1786.00000000000;1719.00000000000;1763.00000000000;1786.00000000000;1801.00000000000;1737.00000000000;1682.00000000000;1708.00000000000;1701.00000000000;1661.00000000000;1540.00000000000;1544.00000000000;1511.00000000000;1443.00000000000;1476.00000000000;1445.00000000000;1476.00000000000;1524.00000000000;1501.00000000000;1456.00000000000;1450.00000000000;1463.00000000000;1489.00000000000;1490.00000000000;1523.00000000000;1569.00000000000;1523.00000000000;1562.00000000000;1608.00000000000;1660.00000000000;1610.00000000000;1598.00000000000;1603.00000000000;1644.00000000000;1729.00000000000;1826.00000000000;1837.00000000000;2131.00000000000;2248.00000000000;2280.00000000000;2334.00000000000;2380.00000000000;2406.00000000000;2343.00000000000;2262.00000000000;2199.00000000000;2218.00000000000;2226.00000000000;2214.00000000000;2211.00000000000;2199.00000000000;2241.00000000000;2228.00000000000;2269.00000000000;2280.00000000000;2270.00000000000;2290.00000000000;2263.00000000000;2259.00000000000;2261.00000000000;2248.00000000000;2243.00000000000;2245.00000000000;2232.00000000000;2231.00000000000;2225.00000000000;2223.00000000000;2204.00000000000;2215.00000000000;2228.00000000000;2205.00000000000;2228.00000000000;2219.00000000000;2204.00000000000;2217.00000000000;2234.00000000000;2214.00000000000;2213.00000000000;2212.00000000000;2195.00000000000;2206.00000000000;2198.00000000000;2207.00000000000;2170.00000000000;2202.00000000000;2202.00000000000;2169.00000000000;2209.00000000000;2182.00000000000;2211.00000000000;2197.00000000000
Accel Z : 1702.00000000000;1682.00000000000;1694.00000000000;1688.00000000000;1707.00000000000;1689.00000000000;1671.00000000000;1672.00000000000;1716.00000000000;1683.00000000000;1690.00000000000;1693.00000000000;1701.00000000000;1681.00000000000;1700.00000000000;1704.00000000000;1696.00000000000;1659.00000000000;1708.00000000000;1694.00000000000;1709.00000000000;1693.00000000000;1711.00000000000;1693.00000000000;1691.00000000000;1689.00000000000;1698.00000000000;1702.00000000000;1693.00000000000;1711.00000000000;1697.00000000000;1675.00000000000;1671.00000000000;1680.00000000000;1687.00000000000;1672.00000000000;1656.00000000000;1667.00000000000;1631.00000000000;1617.00000000000;1620.00000000000;1607.00000000000;1507.00000000000;1461.00000000000;1433.00000000000;1286.00000000000;1207.00000000000;1165.00000000000;1144.00000000000;1079.00000000000;903.000000000000;925.000000000000;951.000000000000;803.000000000000;749.000000000000;747.000000000000;710.000000000000;811.000000000000;864.000000000000;955.000000000000;1005.00000000000;1190.00000000000;1395.00000000000;1711.00000000000;1878.00000000000;2261.00000000000;2490.00000000000;2420.00000000000;2327.00000000000;2124.00000000000;1966.00000000000;2007.00000000000;2037.00000000000;2061.00000000000;2075.00000000000;2059.00000000000;2135.00000000000;2176.00000000000;2174.00000000000;2131.00000000000;2105.00000000000;1948.00000000000;1889.00000000000;1860.00000000000;1802.00000000000;1756.00000000000;1571.00000000000;1489.00000000000;1430.00000000000;1440.00000000000;1341.00000000000;1231.00000000000;1055.00000000000;969.000000000000;1056.00000000000;1323.00000000000;1474.00000000000;1686.00000000000;1809.00000000000;1900.00000000000;1980.00000000000;2002.00000000000;1994.00000000000;1985.00000000000;2037.00000000000;2072.00000000000;2068.00000000000;2024.00000000000;2030.00000000000;2038.00000000000;2054.00000000000;2048.00000000000;1998.00000000000;1981.00000000000;1988.00000000000;1986.00000000000;1949.00000000000;1943.00000000000;1916.00000000000;1945.00000000000;1917.00000000000;1934.00000000000;1931.00000000000;1923.00000000000;1912.00000000000;1907.00000000000;1906.00000000000;1937.00000000000;1939.00000000000;1918.00000000000;1914.00000000000;1919.00000000000;1922.00000000000;1926.00000000000;1937.00000000000;1943.00000000000;1938.00000000000;1933.00000000000;1966.00000000000;1934.00000000000;1925.00000000000;1901.00000000000;1927.00000000000;1925.00000000000;1911.00000000000;1942.00000000000;1927.00000000000;1905.00000000000;1922.00000000000;1921.00000000000
Gyro X : 978.000000000000;1018.00000000000;996.000000000000;996.000000000000;997.000000000000;959.000000000000;945.000000000000;965.000000000000;995.000000000000;992.000000000000;983.000000000000;948.000000000000;926.000000000000;956.000000000000;984.000000000000;993.000000000000;964.000000000000;971.000000000000;948.000000000000;976.000000000000;987.000000000000;969.000000000000;969.000000000000;984.000000000000;955.000000000000;986.000000000000;991.000000000000;982.000000000000;975.000000000000;974.000000000000;969.000000000000;963.000000000000;981.000000000000;954.000000000000;996.000000000000;988.000000000000;1007.00000000000;1046.00000000000;951.000000000000;921.000000000000;957.000000000000;956.000000000000;864.000000000000;918.000000000000;844.000000000000;765.000000000000;609.000000000000;729.000000000000;810.000000000000;864.000000000000;745.000000000000;808.000000000000;983.000000000000;984.000000000000;1131.00000000000;1244.00000000000;1141.00000000000;1292.00000000000;1264.00000000000;1553.00000000000;1586.00000000000;1664.00000000000;1658.00000000000;1748.00000000000;1726.00000000000;1967.00000000000;2055.00000000000;2093.00000000000;2277.00000000000;2157.00000000000;2042.00000000000;2088.00000000000;2050.00000000000;1957.00000000000;1861.00000000000;1879.00000000000;1862.00000000000;1921.00000000000;1885.00000000000;1922.00000000000;1961.00000000000;1960.00000000000;1914.00000000000;1877.00000000000;1827.00000000000;1821.00000000000;1823.00000000000;1746.00000000000;1646.00000000000;1593.00000000000;1560.00000000000;1486.00000000000;1242.00000000000;1093.00000000000;948.000000000000;1204.00000000000;989.000000000000;627.000000000000;615.000000000000;669.000000000000;652.000000000000;328.000000000000;265.000000000000;405.000000000000;718.000000000000;847.000000000000;821.000000000000;875.000000000000;877.000000000000;906.000000000000;963.000000000000;1006.00000000000;968.000000000000;1008.00000000000;1042.00000000000;1014.00000000000;1030.00000000000;1019.00000000000;1048.00000000000;1047.00000000000;1057.00000000000;1040.00000000000;1036.00000000000;1038.00000000000;1005.00000000000;1031.00000000000;1024.00000000000;1021.00000000000;1024.00000000000;1002.00000000000;992.000000000000;1016.00000000000;1007.00000000000;1001.00000000000;1008.00000000000;997.000000000000;992.000000000000;979.000000000000;1018.00000000000;1032.00000000000;1012.00000000000;1003.00000000000;997.000000000000;999.000000000000;1029.00000000000;990.000000000000;1015.00000000000;989.000000000000;979.000000000000;1010.00000000000
Gyro Y : 2173.00000000000;2182.00000000000;2184.00000000000;2170.00000000000;2174.00000000000;2205.00000000000;2176.00000000000;2194.00000000000;2199.00000000000;2220.00000000000;2195.00000000000;2205.00000000000;2205.00000000000;2200.00000000000;2210.00000000000;2205.00000000000;2207.00000000000;2220.00000000000;2213.00000000000;2230.00000000000;2209.00000000000;2219.00000000000;2244.00000000000;2207.00000000000;2225.00000000000;2220.00000000000;2222.00000000000;2215.00000000000;2219.00000000000;2218.00000000000;2232.00000000000;2221.00000000000;2214.00000000000;2201.00000000000;2192.00000000000;2206.00000000000;2211.00000000000;2186.00000000000;2204.00000000000;2158.00000000000;2180.00000000000;2175.00000000000;2122.00000000000;2115.00000000000;2083.00000000000;2058.00000000000;2053.00000000000;2052.00000000000;2026.00000000000;1916.00000000000;1896.00000000000;1901.00000000000;1863.00000000000;1868.00000000000;1860.00000000000;1767.00000000000;1682.00000000000;1725.00000000000;1767.00000000000;1786.00000000000;1719.00000000000;1763.00000000000;1786.00000000000;1801.00000000000;1737.00000000000;1682.00000000000;1708.00000000000;1701.00000000000;1661.00000000000;1540.00000000000;1544.00000000000;1511.00000000000;1443.00000000000;1476.00000000000;1445.00000000000;1476.00000000000;1524.00000000000;1501.00000000000;1456.00000000000;1450.00000000000;1463.00000000000;1489.00000000000;1490.00000000000;1523.00000000000;1569.00000000000;1523.00000000000;1562.00000000000;1608.00000000000;1660.00000000000;1610.00000000000;1598.00000000000;1603.00000000000;1644.00000000000;1729.00000000000;1826.00000000000;1837.00000000000;2131.00000000000;2248.00000000000;2280.00000000000;2334.00000000000;2380.00000000000;2406.00000000000;2343.00000000000;2262.00000000000;2199.00000000000;2218.00000000000;2226.00000000000;2214.00000000000;2211.00000000000;2199.00000000000;2241.00000000000;2228.00000000000;2269.00000000000;2280.00000000000;2270.00000000000;2290.00000000000;2263.00000000000;2259.00000000000;2261.00000000000;2248.00000000000;2243.00000000000;2245.00000000000;2232.00000000000;2231.00000000000;2225.00000000000;2223.00000000000;2204.00000000000;2215.00000000000;2228.00000000000;2205.00000000000;2228.00000000000;2219.00000000000;2204.00000000000;2217.00000000000;2234.00000000000;2214.00000000000;2213.00000000000;2212.00000000000;2195.00000000000;2206.00000000000;2198.00000000000;2207.00000000000;2170.00000000000;2202.00000000000;2202.00000000000;2169.00000000000;2209.00000000000;2182.00000000000;2211.00000000000;2197.00000000000
Gyro Z : 1702.00000000000;1682.00000000000;1694.00000000000;1688.00000000000;1707.00000000000;1689.00000000000;1671.00000000000;1672.00000000000;1716.00000000000;1683.00000000000;1690.00000000000;1693.00000000000;1701.00000000000;1681.00000000000;1700.00000000000;1704.00000000000;1696.00000000000;1659.00000000000;1708.00000000000;1694.00000000000;1709.00000000000;1693.00000000000;1711.00000000000;1693.00000000000;1691.00000000000;1689.00000000000;1698.00000000000;1702.00000000000;1693.00000000000;1711.00000000000;1697.00000000000;1675.00000000000;1671.00000000000;1680.00000000000;1687.00000000000;1672.00000000000;1656.00000000000;1667.00000000000;1631.00000000000;1617.00000000000;1620.00000000000;1607.00000000000;1507.00000000000;1461.00000000000;1433.00000000000;1286.00000000000;1207.00000000000;1165.00000000000;1144.00000000000;1079.00000000000;903.000000000000;925.000000000000;951.000000000000;803.000000000000;749.000000000000;747.000000000000;710.000000000000;811.000000000000;864.000000000000;955.000000000000;1005.00000000000;1190.00000000000;1395.00000000000;1711.00000000000;1878.00000000000;2261.00000000000;2490.00000000000;2420.00000000000;2327.00000000000;2124.00000000000;1966.00000000000;2007.00000000000;2037.00000000000;2061.00000000000;2075.00000000000;2059.00000000000;2135.00000000000;2176.00000000000;2174.00000000000;2131.00000000000;2105.00000000000;1948.00000000000;1889.00000000000;1860.00000000000;1802.00000000000;1756.00000000000;1571.00000000000;1489.00000000000;1430.00000000000;1440.00000000000;1341.00000000000;1231.00000000000;1055.00000000000;969.000000000000;1056.00000000000;1323.00000000000;1474.00000000000;1686.00000000000;1809.00000000000;1900.00000000000;1980.00000000000;2002.00000000000;1994.00000000000;1985.00000000000;2037.00000000000;2072.00000000000;2068.00000000000;2024.00000000000;2030.00000000000;2038.00000000000;2054.00000000000;2048.00000000000;1998.00000000000;1981.00000000000;1988.00000000000;1986.00000000000;1949.00000000000;1943.00000000000;1916.00000000000;1945.00000000000;1917.00000000000;1934.00000000000;1931.00000000000;1923.00000000000;1912.00000000000;1907.00000000000;1906.00000000000;1937.00000000000;1939.00000000000;1918.00000000000;1914.00000000000;1919.00000000000;1922.00000000000;1926.00000000000;1937.00000000000;1943.00000000000;1938.00000000000;1933.00000000000;1966.00000000000;1934.00000000000;1925.00000000000;1901.00000000000;1927.00000000000;1925.00000000000;1911.00000000000;1942.00000000000;1927.00000000000;1905.00000000000;1922.00000000000;1921.00000000000
COMMAND 2 SAMPLE 1
Accel X : 999.000000000000;966.000000000000;989.000000000000;965.000000000000;976.000000000000;964.000000000000;988.000000000000;988.000000000000;986.000000000000;972.000000000000;949.000000000000;967.000000000000;984.000000000000;977.000000000000;970.000000000000;984.000000000000;991.000000000000;977.000000000000;980.000000000000;962.000000000000;962.000000000000;985.000000000000;996.000000000000;982.000000000000;959.000000000000;986.000000000000;974.000000000000;997.000000000000;995.000000000000;994.000000000000;980.000000000000;987.000000000000;980.000000000000;961.000000000000;960.000000000000;953.000000000000;965.000000000000;968.000000000000;986.000000000000;927.000000000000;905.000000000000;864.000000000000;890.000000000000;815.000000000000;785.000000000000;788.000000000000;804.000000000000;892.000000000000;919.000000000000;791.000000000000;795.000000000000;869.000000000000;868.000000000000;959.000000000000;966.000000000000;1139.00000000000;1090.00000000000;1112.00000000000;1167.00000000000;1244.00000000000;1287.00000000000;1336.00000000000;1342.00000000000;1386.00000000000;1391.00000000000;1503.00000000000;1473.00000000000;1461.00000000000;1494.00000000000;1526.00000000000;1495.00000000000;1451.00000000000;1399.00000000000;1337.00000000000;1289.00000000000;1222.00000000000;1184.00000000000;1204.00000000000;1205.00000000000;1188.00000000000;1083.00000000000;988.000000000000;1041.00000000000;1112.00000000000;1154.00000000000;1158.00000000000;975.000000000000;912.000000000000;939.000000000000;1101.00000000000;924.000000000000;816.000000000000;815.000000000000;954.000000000000;1066.00000000000;940.000000000000;835.000000000000;856.000000000000;991.000000000000;1017.00000000000;944.000000000000;816.000000000000;760.000000000000;913.000000000000;1120.00000000000;1159.00000000000;1010.00000000000;936.000000000000;853.000000000000;881.000000000000;924.000000000000;949.000000000000;1003.00000000000;951.000000000000;933.000000000000;914.000000000000;896.000000000000;976.000000000000;985.000000000000;982.000000000000;996.000000000000;1010.00000000000;988.000000000000;1011.00000000000;975.000000000000;985.000000000000;943.000000000000;955.000000000000;970.000000000000;990.000000000000;983.000000000000;952.000000000000;951.000000000000;969.000000000000;985.000000000000;999.000000000000;1008.00000000000;991.000000000000;994.000000000000;968.000000000000;979.000000000000;1005.00000000000;991.000000000000;974.000000000000;962.000000000000;979.000000000000;987.000000000000;993.000000000000;981.000000000000;971.000000000000
Accel Y : 2160.00000000000;2152.00000000000;2192.00000000000;2147.00000000000;2170.00000000000;2162.00000000000;2197.00000000000;2167.00000000000;2158.00000000000;2169.00000000000;2173.00000000000;2167.00000000000;2168.00000000000;2170.00000000000;2164.00000000000;2169.00000000000;2164.00000000000;2166.00000000000;2178.00000000000;2164.00000000000;2154.00000000000;2158.00000000000;2142.00000000000;2171.00000000000;2177.00000000000;2175.00000000000;2163.00000000000;2177.00000000000;2154.00000000000;2163.00000000000;2183.00000000000;2163.00000000000;2157.00000000000;2182.00000000000;2170.00000000000;2176.00000000000;2168.00000000000;2188.00000000000;2242.00000000000;2254.00000000000;2260.00000000000;2287.00000000000;2355.00000000000;2422.00000000000;2430.00000000000;2431.00000000000;2445.00000000000;2540.00000000000;2570.00000000000;2602.00000000000;2608.00000000000;2656.00000000000;2700.00000000000;2717.00000000000;2795.00000000000;2802.00000000000;2796.00000000000;2760.00000000000;2722.00000000000;2734.00000000000;2743.00000000000;2689.00000000000;2652.00000000000;2561.00000000000;2485.00000000000;2358.00000000000;2282.00000000000;2203.00000000000;2133.00000000000;2116.00000000000;2131.00000000000;2101.00000000000;2138.00000000000;2169.00000000000;2194.00000000000;2255.00000000000;2224.00000000000;2209.00000000000;2262.00000000000;2353.00000000000;2382.00000000000;2400.00000000000;2323.00000000000;2376.00000000000;2441.00000000000;2532.00000000000;2641.00000000000;2709.00000000000;2647.00000000000;2630.00000000000;2779.00000000000;2796.00000000000;2677.00000000000;2529.00000000000;2578.00000000000;2673.00000000000;2568.00000000000;2489.00000000000;2384.00000000000;2271.00000000000;2257.00000000000;2286.00000000000;2307.00000000000;2223.00000000000;2148.00000000000;2103.00000000000;2134.00000000000;2197.00000000000;2157.00000000000;2141.00000000000;2159.00000000000;2143.00000000000;2184.00000000000;2163.00000000000;2178.00000000000;2204.00000000000;2203.00000000000;2187.00000000000;2186.00000000000;2197.00000000000;2185.00000000000;2163.00000000000;2172.00000000000;2186.00000000000;2178.00000000000;2157.00000000000;2155.00000000000;2177.00000000000;2169.00000000000;2191.00000000000;2204.00000000000;2195.00000000000;2189.00000000000;2171.00000000000;2176.00000000000;2174.00000000000;2180.00000000000;2174.00000000000;2157.00000000000;2192.00000000000;2172.00000000000;2191.00000000000;2186.00000000000;2187.00000000000;2213.00000000000;2186.00000000000;2207.00000000000;2213.00000000000;2182.00000000000;2170.00000000000
Accel Z : 1738.00000000000;1731.00000000000;1733.00000000000;1747.00000000000;1742.00000000000;1731.00000000000;1722.00000000000;1740.00000000000;1752.00000000000;1761.00000000000;1723.00000000000;1758.00000000000;1738.00000000000;1729.00000000000;1730.00000000000;1763.00000000000;1744.00000000000;1756.00000000000;1764.00000000000;1742.00000000000;1762.00000000000;1733.00000000000;1764.00000000000;1728.00000000000;1757.00000000000;1734.00000000000;1741.00000000000;1750.00000000000;1769.00000000000;1769.00000000000;1749.00000000000;1733.00000000000;1804.00000000000;1812.00000000000;1872.00000000000;1891.00000000000;1910.00000000000;1985.00000000000;2081.00000000000;2151.00000000000;2144.00000000000;2120.00000000000;2225.00000000000;2262.00000000000;2277.00000000000;2237.00000000000;2193.00000000000;2148.00000000000;2036.00000000000;1975.00000000000;1896.00000000000;1898.00000000000;1796.00000000000;1676.00000000000;1510.00000000000;1473.00000000000;1395.00000000000;1320.00000000000;1227.00000000000;1156.00000000000;997.000000000000;991.000000000000;898.000000000000;810.000000000000;732.000000000000;740.000000000000;725.000000000000;672.000000000000;673.000000000000;671.000000000000;675.000000000000;719.000000000000;687.000000000000;685.000000000000;695.000000000000;826.000000000000;900.000000000000;897.000000000000;903.000000000000;958.000000000000;1070.00000000000;1201.00000000000;1107.00000000000;1075.00000000000;1187.00000000000;1285.00000000000;1481.00000000000;1503.00000000000;1490.00000000000;1481.00000000000;1781.00000000000;1975.00000000000;1937.00000000000;1792.00000000000;1943.00000000000;2097.00000000000;2115.00000000000;2043.00000000000;2038.00000000000;1944.00000000000;1995.00000000000;1964.00000000000;1931.00000000000;1934.00000000000;1856.00000000000;1909.00000000000;1817.00000000000;1813.00000000000;1828.00000000000;1770.00000000000;1773.00000000000;1734.00000000000;1743.00000000000;1738.00000000000;1707.00000000000;1722.00000000000;1655.00000000000;1702.00000000000;1701.00000000000;1702.00000000000;1668.00000000000;1661.00000000000;1685.00000000000;1692.00000000000;1689.00000000000;1682.00000000000;1720.00000000000;1687.00000000000;1705.00000000000;1714.00000000000;1716.00000000000;1709.00000000000;1709.00000000000;1729.00000000000;1717.00000000000;1730.00000000000;1731.00000000000;1704.00000000000;1728.00000000000;1755.00000000000;1736.00000000000;1716.00000000000;1710.00000000000;1717.00000000000;1739.00000000000;1728.00000000000;1731.00000000000;1692.00000000000;1728.00000000000;1715.00000000000
Gyro X : 999.000000000000;966.000000000000;989.000000000000;965.000000000000;976.000000000000;964.000000000000;988.000000000000;988.000000000000;986.000000000000;972.000000000000;949.000000000000;967.000000000000;984.000000000000;977.000000000000;970.000000000000;984.000000000000;991.000000000000;977.000000000000;980.000000000000;962.000000000000;962.000000000000;985.000000000000;996.000000000000;982.000000000000;959.000000000000;986.000000000000;974.000000000000;997.000000000000;995.000000000000;994.000000000000;980.000000000000;987.000000000000;980.000000000000;961.000000000000;960.000000000000;953.000000000000;965.000000000000;968.000000000000;986.000000000000;927.000000000000;905.000000000000;864.000000000000;890.000000000000;815.000000000000;785.000000000000;788.000000000000;804.000000000000;892.000000000000;919.000000000000;791.000000000000;795.000000000000;869.000000000000;868.000000000000;959.000000000000;966.000000000000;1139.00000000000;1090.00000000000;1112.00000000000;1167.00000000000;1244.00000000000;1287.00000000000;1336.00000000000;1342.00000000000;1386.00000000000;1391.00000000000;1503.00000000000;1473.00000000000;1461.00000000000;1494.00000000000;1526.00000000000;1495.00000000000;1451.00000000000;1399.00000000000;1337.00000000000;1289.00000000000;1222.00000000000;1184.00000000000;1204.00000000000;1205.00000000000;1188.00000000000;1083.00000000000;988.000000000000;1041.00000000000;1112.00000000000;1154.00000000000;1158.00000000000;975.000000000000;912.000000000000;939.000000000000;1101.00000000000;924.000000000000;816.000000000000;815.000000000000;954.000000000000;1066.00000000000;940.000000000000;835.000000000000;856.000000000000;991.000000000000;1017.00000000000;944.000000000000;816.000000000000;760.000000000000;913.000000000000;1120.00000000000;1159.00000000000;1010.00000000000;936.000000000000;853.000000000000;881.000000000000;924.000000000000;949.000000000000;1003.00000000000;951.000000000000;933.000000000000;914.000000000000;896.000000000000;976.000000000000;985.000000000000;982.000000000000;996.000000000000;1010.00000000000;988.000000000000;1011.00000000000;975.000000000000;985.000000000000;943.000000000000;955.000000000000;970.000000000000;990.000000000000;983.000000000000;952.000000000000;951.000000000000;969.000000000000;985.000000000000;999.000000000000;1008.00000000000;991.000000000000;994.000000000000;968.000000000000;979.000000000000;1005.00000000000;991.000000000000;974.000000000000;962.000000000000;979.000000000000;987.000000000000;993.000000000000;981.000000000000;971.000000000000
Gyro Y : 2160.00000000000;2152.00000000000;2192.00000000000;2147.00000000000;2170.00000000000;2162.00000000000;2197.00000000000;2167.00000000000;2158.00000000000;2169.00000000000;2173.00000000000;2167.00000000000;2168.00000000000;2170.00000000000;2164.00000000000;2169.00000000000;2164.00000000000;2166.00000000000;2178.00000000000;2164.00000000000;2154.00000000000;2158.00000000000;2142.00000000000;2171.00000000000;2177.00000000000;2175.00000000000;2163.00000000000;2177.00000000000;2154.00000000000;2163.00000000000;2183.00000000000;2163.00000000000;2157.00000000000;2182.00000000000;2170.00000000000;2176.00000000000;2168.00000000000;2188.00000000000;2242.00000000000;2254.00000000000;2260.00000000000;2287.00000000000;2355.00000000000;2422.00000000000;2430.00000000000;2431.00000000000;2445.00000000000;2540.00000000000;2570.00000000000;2602.00000000000;2608.00000000000;2656.00000000000;2700.00000000000;2717.00000000000;2795.00000000000;2802.00000000000;2796.00000000000;2760.00000000000;2722.00000000000;2734.00000000000;2743.00000000000;2689.00000000000;2652.00000000000;2561.00000000000;2485.00000000000;2358.00000000000;2282.00000000000;2203.00000000000;2133.00000000000;2116.00000000000;2131.00000000000;2101.00000000000;2138.00000000000;2169.00000000000;2194.00000000000;2255.00000000000;2224.00000000000;2209.00000000000;2262.00000000000;2353.00000000000;2382.00000000000;2400.00000000000;2323.00000000000;2376.00000000000;2441.00000000000;2532.00000000000;2641.00000000000;2709.00000000000;2647.00000000000;2630.00000000000;2779.00000000000;2796.00000000000;2677.00000000000;2529.00000000000;2578.00000000000;2673.00000000000;2568.00000000000;2489.00000000000;2384.00000000000;2271.00000000000;2257.00000000000;2286.00000000000;2307.00000000000;2223.00000000000;2148.00000000000;2103.00000000000;2134.00000000000;2197.00000000000;2157.00000000000;2141.00000000000;2159.00000000000;2143.00000000000;2184.00000000000;2163.00000000000;2178.00000000000;2204.00000000000;2203.00000000000;2187.00000000000;2186.00000000000;2197.00000000000;2185.00000000000;2163.00000000000;2172.00000000000;2186.00000000000;2178.00000000000;2157.00000000000;2155.00000000000;2177.00000000000;2169.00000000000;2191.00000000000;2204.00000000000;2195.00000000000;2189.00000000000;2171.00000000000;2176.00000000000;2174.00000000000;2180.00000000000;2174.00000000000;2157.00000000000;2192.00000000000;2172.00000000000;2191.00000000000;2186.00000000000;2187.00000000000;2213.00000000000;2186.00000000000;2207.00000000000;2213.00000000000;2182.00000000000;2170.00000000000
Gyro Z : 1738.00000000000;1731.00000000000;1733.00000000000;1747.00000000000;1742.00000000000;1731.00000000000;1722.00000000000;1740.00000000000;1752.00000000000;1761.00000000000;1723.00000000000;1758.00000000000;1738.00000000000;1729.00000000000;1730.00000000000;1763.00000000000;1744.00000000000;1756.00000000000;1764.00000000000;1742.00000000000;1762.00000000000;1733.00000000000;1764.00000000000;1728.00000000000;1757.00000000000;1734.00000000000;1741.00000000000;1750.00000000000;1769.00000000000;1769.00000000000;1749.00000000000;1733.00000000000;1804.00000000000;1812.00000000000;1872.00000000000;1891.00000000000;1910.00000000000;1985.00000000000;2081.00000000000;2151.00000000000;2144.00000000000;2120.00000000000;2225.00000000000;2262.00000000000;2277.00000000000;2237.00000000000;2193.00000000000;2148.00000000000;2036.00000000000;1975.00000000000;1896.00000000000;1898.00000000000;1796.00000000000;1676.00000000000;1510.00000000000;1473.00000000000;1395.00000000000;1320.00000000000;1227.00000000000;1156.00000000000;997.000000000000;991.000000000000;898.000000000000;810.000000000000;732.000000000000;740.000000000000;725.000000000000;672.000000000000;673.000000000000;671.000000000000;675.000000000000;719.000000000000;687.000000000000;685.000000000000;695.000000000000;826.000000000000;900.000000000000;897.000000000000;903.000000000000;958.000000000000;1070.00000000000;1201.00000000000;1107.00000000000;1075.00000000000;1187.00000000000;1285.00000000000;1481.00000000000;1503.00000000000;1490.00000000000;1481.00000000000;1781.00000000000;1975.00000000000;1937.00000000000;1792.00000000000;1943.00000000000;2097.00000000000;2115.00000000000;2043.00000000000;2038.00000000000;1944.00000000000;1995.00000000000;1964.00000000000;1931.00000000000;1934.00000000000;1856.00000000000;1909.00000000000;1817.00000000000;1813.00000000000;1828.00000000000;1770.00000000000;1773.00000000000;1734.00000000000;1743.00000000000;1738.00000000000;1707.00000000000;1722.00000000000;1655.00000000000;1702.00000000000;1701.00000000000;1702.00000000000;1668.00000000000;1661.00000000000;1685.00000000000;1692.00000000000;1689.00000000000;1682.00000000000;1720.00000000000;1687.00000000000;1705.00000000000;1714.00000000000;1716.00000000000;1709.00000000000;1709.00000000000;1729.00000000000;1717.00000000000;1730.00000000000;1731.00000000000;1704.00000000000;1728.00000000000;1755.00000000000;1736.00000000000;1716.00000000000;1710.00000000000;1717.00000000000;1739.00000000000;1728.00000000000;1731.00000000000;1692.00000000000;1728.00000000000;1715.00000000000
COMMAND 2 SAMPLE 1
Accel X : 979.000000000000;973.000000000000;983.000000000000;990.000000000000;985.000000000000;992.000000000000;1002.00000000000;986.000000000000;975.000000000000;984.000000000000;988.000000000000;979.000000000000;972.000000000000;977.000000000000;972.000000000000;955.000000000000;982.000000000000;967.000000000000;981.000000000000;955.000000000000;974.000000000000;966.000000000000;979.000000000000;989.000000000000;966.000000000000;944.000000000000;973.000000000000;995.000000000000;995.000000000000;954.000000000000;943.000000000000;964.000000000000;984.000000000000;1006.00000000000;984.000000000000;961.000000000000;959.000000000000;986.000000000000;981.000000000000;993.000000000000;957.000000000000;919.000000000000;945.000000000000;959.000000000000;964.000000000000;991.000000000000;931.000000000000;853.000000000000;834.000000000000;909.000000000000;975.000000000000;871.000000000000;890.000000000000;862.000000000000;987.000000000000;956.000000000000;980.000000000000;977.000000000000;999.000000000000;1001.00000000000;1012.00000000000;1052.00000000000;1081.00000000000;1094.00000000000;1042.00000000000;1135.00000000000;1127.00000000000;1225.00000000000;1219.00000000000;1254.00000000000;1292.00000000000;1236.00000000000;1318.00000000000;1365.00000000000;1379.00000000000;1385.00000000000;1379.00000000000;1370.00000000000;1334.00000000000;1295.00000000000;1263.00000000000;1234.00000000000;1240.00000000000;1155.00000000000;1011.00000000000;1063.00000000000;1174.00000000000;1205.00000000000;1074.00000000000;945.000000000000;943.000000000000;1014.00000000000;872.000000000000;878.000000000000;944.000000000000;1004.00000000000;932.000000000000;863.000000000000;884.000000000000;1032.00000000000;1132.00000000000;986.000000000000;801.000000000000;742.000000000000;936.000000000000;1109.00000000000;1215.00000000000;1063.00000000000;934.000000000000;897.000000000000;961.000000000000;1054.00000000000;983.000000000000;977.000000000000;955.000000000000;936.000000000000;961.000000000000;966.000000000000;962.000000000000;963.000000000000;954.000000000000;923.000000000000;936.000000000000;977.000000000000;962.000000000000;964.000000000000;974.000000000000;949.000000000000;961.000000000000;970.000000000000;1018.00000000000;984.000000000000;991.000000000000;966.000000000000;990.000000000000;977.000000000000;993.000000000000;985.000000000000;992.000000000000;993.000000000000;981.000000000000;987.000000000000;996.000000000000;976.000000000000;1018.00000000000;967.000000000000;971.000000000000;969.000000000000;971.000000000000;980.000000000000
Accel Y : 2142.00000000000;2177.00000000000;2185.00000000000;2181.00000000000;2198.00000000000;2195.00000000000;2206.00000000000;2194.00000000000;2198.00000000000;2184.00000000000;2165.00000000000;2169.00000000000;2191.00000000000;2164.00000000000;2167.00000000000;2187.00000000000;2179.00000000000;2197.00000000000;2162.00000000000;2155.00000000000;2188.00000000000;2172.00000000000;2202.00000000000;2215.00000000000;2221.00000000000;2216.00000000000;2208.00000000000;2230.00000000000;2205.00000000000;2215.00000000000;2191.00000000000;2183.00000000000;2214.00000000000;2245.00000000000;2229.00000000000;2207.00000000000;2236.00000000000;2224.00000000000;2223.00000000000;2204.00000000000;2217.00000000000;2216.00000000000;2223.00000000000;2237.00000000000;2249.00000000000;2256.00000000000;2290.00000000000;2340.00000000000;2406.00000000000;2428.00000000000;2469.00000000000;2562.00000000000;2609.00000000000;2644.00000000000;2643.00000000000;2640.00000000000;2688.00000000000;2703.00000000000;2668.00000000000;2676.00000000000;2629.00000000000;2576.00000000000;2544.00000000000;2528.00000000000;2502.00000000000;2495.00000000000;2433.00000000000;2386.00000000000;2362.00000000000;2300.00000000000;2238.00000000000;2175.00000000000;2097.00000000000;2053.00000000000;1987.00000000000;1951.00000000000;1934.00000000000;1943.00000000000;2018.00000000000;2059.00000000000;2095.00000000000;2174.00000000000;2239.00000000000;2304.00000000000;2318.00000000000;2306.00000000000;2325.00000000000;2398.00000000000;2521.00000000000;2571.00000000000;2533.00000000000;2495.00000000000;2662.00000000000;2701.00000000000;2579.00000000000;2566.00000000000;2623.00000000000;2566.00000000000;2480.00000000000;2428.00000000000;2424.00000000000;2485.00000000000;2449.00000000000;2362.00000000000;2279.00000000000;2269.00000000000;2186.00000000000;2237.00000000000;2216.00000000000;2209.00000000000;2208.00000000000;2231.00000000000;2227.00000000000;2203.00000000000;2166.00000000000;2191.00000000000;2184.00000000000;2196.00000000000;2163.00000000000;2155.00000000000;2186.00000000000;2184.00000000000;2176.00000000000;2201.00000000000;2193.00000000000;2194.00000000000;2202.00000000000;2195.00000000000;2215.00000000000;2223.00000000000;2227.00000000000;2219.00000000000;2194.00000000000;2206.00000000000;2209.00000000000;2191.00000000000;2217.00000000000;2213.00000000000;2213.00000000000;2200.00000000000;2215.00000000000;2200.00000000000;2205.00000000000;2208.00000000000;2196.00000000000;2215.00000000000;2234.00000000000;2227.00000000000;2233.00000000000;2214.00000000000
Accel Z : 1786.00000000000;1777.00000000000;1769.00000000000;1777.00000000000;1784.00000000000;1782.00000000000;1804.00000000000;1797.00000000000;1807.00000000000;1798.00000000000;1777.00000000000;1779.00000000000;1784.00000000000;1782.00000000000;1763.00000000000;1784.00000000000;1802.00000000000;1784.00000000000;1782.00000000000;1775.00000000000;1768.00000000000;1759.00000000000;1763.00000000000;1770.00000000000;1762.00000000000;1768.00000000000;1766.00000000000;1772.00000000000;1794.00000000000;1792.00000000000;1804.00000000000;1790.00000000000;1792.00000000000;1830.00000000000;1843.00000000000;1832.00000000000;1841.00000000000;1854.00000000000;1836.00000000000;1860.00000000000;1911.00000000000;1955.00000000000;1958.00000000000;1971.00000000000;1987.00000000000;2047.00000000000;2138.00000000000;2195.00000000000;2235.00000000000;2187.00000000000;2208.00000000000;2255.00000000000;2282.00000000000;2199.00000000000;2107.00000000000;2072.00000000000;2001.00000000000;1924.00000000000;1747.00000000000;1658.00000000000;1533.00000000000;1381.00000000000;1368.00000000000;1292.00000000000;1226.00000000000;1154.00000000000;1011.00000000000;1014.00000000000;996.000000000000;895.000000000000;770.000000000000;720.000000000000;704.000000000000;671.000000000000;654.000000000000;628.000000000000;617.000000000000;631.000000000000;655.000000000000;723.000000000000;790.000000000000;785.000000000000;797.000000000000;888.000000000000;1052.00000000000;1075.00000000000;988.000000000000;964.000000000000;1163.00000000000;1415.00000000000;1421.00000000000;1355.00000000000;1682.00000000000;1905.00000000000;1929.00000000000;2019.00000000000;2177.00000000000;2220.00000000000;2138.00000000000;2064.00000000000;2066.00000000000;2135.00000000000;2102.00000000000;2027.00000000000;1997.00000000000;1972.00000000000;1996.00000000000;1926.00000000000;1892.00000000000;1837.00000000000;1820.00000000000;1827.00000000000;1777.00000000000;1761.00000000000;1734.00000000000;1716.00000000000;1743.00000000000;1724.00000000000;1720.00000000000;1697.00000000000;1706.00000000000;1693.00000000000;1679.00000000000;1720.00000000000;1688.00000000000;1705.00000000000;1690.00000000000;1696.00000000000;1694.00000000000;1701.00000000000;1724.00000000000;1702.00000000000;1717.00000000000;1702.00000000000;1699.00000000000;1718.00000000000;1725.00000000000;1714.00000000000;1714.00000000000;1700.00000000000;1719.00000000000;1725.00000000000;1710.00000000000;1715.00000000000;1691.00000000000;1703.00000000000;1658.00000000000;1700.00000000000;1711.00000000000;1730.00000000000
Gyro X : 979.000000000000;973.000000000000;983.000000000000;990.000000000000;985.000000000000;992.000000000000;1002.00000000000;986.000000000000;975.000000000000;984.000000000000;988.000000000000;979.000000000000;972.000000000000;977.000000000000;972.000000000000;955.000000000000;982.000000000000;967.000000000000;981.000000000000;955.000000000000;974.000000000000;966.000000000000;979.000000000000;989.000000000000;966.000000000000;944.000000000000;973.000000000000;995.000000000000;995.000000000000;954.000000000000;943.000000000000;964.000000000000;984.000000000000;1006.00000000000;984.000000000000;961.000000000000;959.000000000000;986.000000000000;981.000000000000;993.000000000000;957.000000000000;919.000000000000;945.000000000000;959.000000000000;964.000000000000;991.000000000000;931.000000000000;853.000000000000;834.000000000000;909.000000000000;975.000000000000;871.000000000000;890.000000000000;862.000000000000;987.000000000000;956.000000000000;980.000000000000;977.000000000000;999.000000000000;1001.00000000000;1012.00000000000;1052.00000000000;1081.00000000000;1094.00000000000;1042.00000000000;1135.00000000000;1127.00000000000;1225.00000000000;1219.00000000000;1254.00000000000;1292.00000000000;1236.00000000000;1318.00000000000;1365.00000000000;1379.00000000000;1385.00000000000;1379.00000000000;1370.00000000000;1334.00000000000;1295.00000000000;1263.00000000000;1234.00000000000;1240.00000000000;1155.00000000000;1011.00000000000;1063.00000000000;1174.00000000000;1205.00000000000;1074.00000000000;945.000000000000;943.000000000000;1014.00000000000;872.000000000000;878.000000000000;944.000000000000;1004.00000000000;932.000000000000;863.000000000000;884.000000000000;1032.00000000000;1132.00000000000;986.000000000000;801.000000000000;742.000000000000;936.000000000000;1109.00000000000;1215.00000000000;1063.00000000000;934.000000000000;897.000000000000;961.000000000000;1054.00000000000;983.000000000000;977.000000000000;955.000000000000;936.000000000000;961.000000000000;966.000000000000;962.000000000000;963.000000000000;954.000000000000;923.000000000000;936.000000000000;977.000000000000;962.000000000000;964.000000000000;974.000000000000;949.000000000000;961.000000000000;970.000000000000;1018.00000000000;984.000000000000;991.000000000000;966.000000000000;990.000000000000;977.000000000000;993.000000000000;985.000000000000;992.000000000000;993.000000000000;981.000000000000;987.000000000000;996.000000000000;976.000000000000;1018.00000000000;967.000000000000;971.000000000000;969.000000000000;971.000000000000;980.000000000000
