COMMAND 1 SAMPLE 1
Accel X : 1773.00000000000;1775.00000000000;1771.00000000000;1791.00000000000;1781.00000000000;1798.00000000000;1776.00000000000;1787.00000000000;1790.00000000000;1779.00000000000;1798.00000000000;1785.00000000000;1775.00000000000;1780.00000000000;1781.00000000000;1782.00000000000;1781.00000000000;1778.00000000000;1785.00000000000;1799.00000000000;1787.00000000000;1763.00000000000;1800.00000000000;1787.00000000000;1791.00000000000;1781.00000000000;1788.00000000000;1660.00000000000;1633.00000000000;1782.00000000000;1838.00000000000;1871.00000000000;1947.00000000000;2090.00000000000;2262.00000000000;2398.00000000000;2479.00000000000;2562.00000000000;2654.00000000000;2713.00000000000;2806.00000000000;2939.00000000000;2978.00000000000;2957.00000000000;2956.00000000000;3024.00000000000;3070.00000000000;3043.00000000000;2995.00000000000;2933.00000000000;2858.00000000000;2803.00000000000;2790.00000000000;2730.00000000000;2604.00000000000;2511.00000000000;2398.00000000000;2281.00000000000;2225.00000000000;2126.00000000000;1991.00000000000;1906.00000000000;1905.00000000000;1824.00000000000;1754.00000000000;1696.00000000000;1570.00000000000;1470.00000000000;1393.00000000000;1316.00000000000;1294.00000000000;1275.00000000000;1242.00000000000;1135.00000000000;1062.00000000000;1011.00000000000;999.000000000000;1003.00000000000;875.000000000000;866.000000000000;853.000000000000;795.000000000000;778.000000000000;877.000000000000;946.000000000000;1034.00000000000;1139.00000000000;1268.00000000000;1449.00000000000;1578.00000000000;1714.00000000000;1851.00000000000;1975.00000000000;2038.00000000000;2104.00000000000;2297.00000000000;2620.00000000000;2709.00000000000;2710.00000000000;2791.00000000000;2989.00000000000;3127.00000000000;3046.00000000000;2919.00000000000;3106.00000000000;3107.00000000000;3166.00000000000;3366.00000000000;3236.00000000000;3014.00000000000;3045.00000000000;3055.00000000000;2891.00000000000;2681.00000000000;2520.00000000000;2359.00000000000;2280.00000000000;2161.00000000000;2049.00000000000;2051.00000000000;2046.00000000000;2022.00000000000;1995.00000000000;1984.00000000000;1999.00000000000;1905.00000000000;1873.00000000000;1939.00000000000;1927.00000000000;1905.00000000000;1917.00000000000;1886.00000000000;1874.00000000000;1875.00000000000;1872.00000000000;1868.00000000000;1898.00000000000;1883.00000000000;1916.00000000000;1888.00000000000;1888.00000000000;1939.00000000000;1878.00000000000;1948.00000000000;1975.00000000000;1897.00000000000;1907.00000000000;1924.00000000000;1886.00000000000;1928.00000000000
Accel Y : 2183.00000000000;2174.00000000000;2189.00000000000;2157.00000000000;2183.00000000000;2206.00000000000;2173.00000000000;2172.00000000000;2168.00000000000;2198.00000000000;2188.00000000000;2177.00000000000;2191.00000000000;2182.00000000000;2183.00000000000;2195.00000000000;2179.00000000000;2193.00000000000;2163.00000000000;2194.00000000000;2184.00000000000;2192.00000000000;2163.00000000000;2187.00000000000;2209.00000000000;2182.00000000000;2177.00000000000;2185.00000000000;2178.00000000000;2204.00000000000;2203.00000000000;2196.00000000000;2208.00000000000;2203.00000000000;2146.00000000000;2157.00000000000;2145.00000000000;2162.00000000000;2151.00000000000;2102.00000000000;2090.00000000000;2095.00000000000;2043.00000000000;2042.00000000000;1998.00000000000;1965.00000000000;1891.00000000000;1823.00000000000;1702.00000000000;1707.00000000000;1634.00000000000;1532.00000000000;1459.00000000000;1375.00000000000;1364.00000000000;1349.00000000000;1352.00000000000;1306.00000000000;1302.00000000000;1322.00000000000;1265.00000000000;1315.00000000000;1281.00000000000;1246.00000000000;1310.00000000000;1356.00000000000;1342.00000000000;1382.00000000000;1396.00000000000;1410.00000000000;1426.00000000000;1430.00000000000;1459.00000000000;1458.00000000000;1489.00000000000;1477.00000000000;1514.00000000000;1494.00000000000;1488.00000000000;1471.00000000000;1449.00000000000;1456.00000000000;1413.00000000000;1375.00000000000;1407.00000000000;1402.00000000000;1419.00000000000;1418.00000000000;1415.00000000000;1429.00000000000;1457.00000000000;1468.00000000000;1545.00000000000;1601.00000000000;1681.00000000000;1771.00000000000;1881.00000000000;1886.00000000000;1969.00000000000;2148.00000000000;2154.00000000000;2231.00000000000;2137.00000000000;2030.00000000000;2066.00000000000;1971.00000000000;1928.00000000000;1937.00000000000;1962.00000000000;2015.00000000000;2046.00000000000;2015.00000000000;2053.00000000000;2057.00000000000;2098.00000000000;2129.00000000000;2112.00000000000;2119.00000000000;2112.00000000000;2119.00000000000;2130.00000000000;2143.00000000000;2106.00000000000;2134.00000000000;2143.00000000000;2124.00000000000;2128.00000000000;2131.00000000000;2125.00000000000;2097.00000000000;2123.00000000000;2111.00000000000;2099.00000000000;2096.00000000000;2114.00000000000;2107.00000000000;2081.00000000000;2090.00000000000;2108.00000000000;2120.00000000000;2098.00000000000;2125.00000000000;2102.00000000000;2075.00000000000;2131.00000000000;2097.00000000000;2119.00000000000;2129.00000000000;2134.00000000000;2115.00000000000
Accel Z : 2669.00000000000;2659.00000000000;2643.00000000000;2652.00000000000;2647.00000000000;2664.00000000000;2644.00000000000;2639.00000000000;2644.00000000000;2627.00000000000;2660.00000000000;2652.00000000000;2658.00000000000;2640.00000000000;2649.00000000000;2642.00000000000;2670.00000000000;2659.00000000000;2660.00000000000;2673.00000000000;2650.00000000000;2654.00000000000;2647.00000000000;2636.00000000000;2642.00000000000;2630.00000000000;2621.00000000000;2603.00000000000;2590.00000000000;2615.00000000000;2640.00000000000;2628.00000000000;2614.00000000000;2592.00000000000;2545.00000000000;2561.00000000000;2579.00000000000;2524.00000000000;2497.00000000000;2453.00000000000;2441.00000000000;2435.00000000000;2340.00000000000;2259.00000000000;2281.00000000000;2255.00000000000;2217.00000000000;2165.00000000000;2120.00000000000;2092.00000000000;2096.00000000000;2030.00000000000;2015.00000000000;2033.00000000000;2034.00000000000;1927.00000000000;2006.00000000000;1989.00000000000;1939.00000000000;1960.00000000000;1953.00000000000;1993.00000000000;1930.00000000000;1939.00000000000;1951.00000000000;1939.00000000000;1897.00000000000;1898.00000000000;1947.00000000000;1915.00000000000;1895.00000000000;1918.00000000000;1926.00000000000;1921.00000000000;1909.00000000000;1893.00000000000;1937.00000000000;1925.00000000000;1888.00000000000;1879.00000000000;1885.00000000000;1873.00000000000;1859.00000000000;1852.00000000000;1840.00000000000;1850.00000000000;1860.00000000000;1852.00000000000;1819.00000000000;1785.00000000000;1799.00000000000;1794.00000000000;1834.00000000000;1743.00000000000;1762.00000000000;1785.00000000000;1802.00000000000;1790.00000000000;1789.00000000000;1905.00000000000;1973.00000000000;2062.00000000000;2128.00000000000;1979.00000000000;2191.00000000000;2154.00000000000;2207.00000000000;2302.00000000000;2358.00000000000;2375.00000000000;2410.00000000000;2466.00000000000;2507.00000000000;2510.00000000000;2517.00000000000;2601.00000000000;2612.00000000000;2612.00000000000;2612.00000000000;2654.00000000000;2672.00000000000;2679.00000000000;2678.00000000000;2697.00000000000;2707.00000000000;2693.00000000000;2702.00000000000;2737.00000000000;2687.00000000000;2656.00000000000;2686.00000000000;2655.00000000000;2615.00000000000;2653.00000000000;2630.00000000000;2604.00000000000;2614.00000000000;2682.00000000000;2669.00000000000;2609.00000000000;2651.00000000000;2651.00000000000;2648.00000000000;2662.00000000000;2678.00000000000;2666.00000000000;2705.00000000000;2652.00000000000;2671.00000000000;2673.00000000000
Gyro X : 1773.00000000000;1775.00000000000;1771.00000000000;1791.00000000000;1781.00000000000;1798.00000000000;1776.00000000000;1787.00000000000;1790.00000000000;1779.00000000000;1798.00000000000;1785.00000000000;1775.00000000000;1780.00000000000;1781.00000000000;1782.00000000000;1781.00000000000;1778.00000000000;1785.00000000000;1799.00000000000;1787.00000000000;1763.00000000000;1800.00000000000;1787.00000000000;1791.00000000000;1781.00000000000;1788.00000000000;1660.00000000000;1633.00000000000;1782.00000000000;1838.00000000000;1871.00000000000;1947.00000000000;2090.00000000000;2262.00000000000;2398.00000000000;2479.00000000000;2562.00000000000;2654.00000000000;2713.00000000000;2806.00000000000;2939.00000000000;2978.00000000000;2957.00000000000;2956.00000000000;3024.00000000000;3070.00000000000;3043.00000000000;2995.00000000000;2933.00000000000;2858.00000000000;2803.00000000000;2790.00000000000;2730.00000000000;2604.00000000000;2511.00000000000;2398.00000000000;2281.00000000000;2225.00000000000;2126.00000000000;1991.00000000000;1906.00000000000;1905.00000000000;1824.00000000000;1754.00000000000;1696.00000000000;1570.00000000000;1470.00000000000;1393.00000000000;1316.00000000000;1294.00000000000;1275.00000000000;1242.00000000000;1135.00000000000;1062.00000000000;1011.00000000000;999.000000000000;1003.00000000000;875.000000000000;866.000000000000;853.000000000000;795.000000000000;778.000000000000;877.000000000000;946.000000000000;1034.00000000000;1139.00000000000;1268.00000000000;1449.00000000000;1578.00000000000;1714.00000000000;1851.00000000000;1975.00000000000;2038.00000000000;2104.00000000000;2297.00000000000;2620.00000000000;2709.00000000000;2710.00000000000;2791.00000000000;2989.00000000000;3127.00000000000;3046.00000000000;2919.00000000000;3106.00000000000;3107.00000000000;3166.00000000000;3366.00000000000;3236.00000000000;3014.00000000000;3045.00000000000;3055.00000000000;2891.00000000000;2681.00000000000;2520.00000000000;2359.00000000000;2280.00000000000;2161.00000000000;2049.00000000000;2051.00000000000;2046.00000000000;2022.00000000000;1995.00000000000;1984.00000000000;1999.00000000000;1905.00000000000;1873.00000000000;1939.00000000000;1927.00000000000;1905.00000000000;1917.00000000000;1886.00000000000;1874.00000000000;1875.00000000000;1872.00000000000;1868.00000000000;1898.00000000000;1883.00000000000;1916.00000000000;1888.00000000000;1888.00000000000;1939.00000000000;1878.00000000000;1948.00000000000;1975.00000000000;1897.00000000000;1907.00000000000;1924.00000000000;1886.00000000000;1928.00000000000
Gyro Y : 2183.00000000000;2174.00000000000;2189.00000000000;2157.00000000000;2183.00000000000;2206.00000000000;2173.00000000000;2172.00000000000;2168.00000000000;2198.00000000000;2188.00000000000;2177.00000000000;2191.00000000000;2182.00000000000;2183.00000000000;2195.00000000000;2179.00000000000;2193.00000000000;2163.00000000000;2194.00000000000;2184.00000000000;2192.00000000000;2163.00000000000;2187.00000000000;2209.00000000000;2182.00000000000;2177.00000000000;2185.00000000000;2178.00000000000;2204.00000000000;2203.00000000000;2196.00000000000;2208.00000000000;2203.00000000000;2146.00000000000;2157.00000000000;2145.00000000000;2162.00000000000;2151.00000000000;2102.00000000000;2090.00000000000;2095.00000000000;2043.00000000000;2042.00000000000;1998.00000000000;1965.00000000000;1891.00000000000;1823.00000000000;1702.00000000000;1707.00000000000;1634.00000000000;1532.00000000000;1459.00000000000;1375.00000000000;1364.00000000000;1349.00000000000;1352.00000000000;1306.00000000000;1302.00000000000;1322.00000000000;1265.00000000000;1315.00000000000;1281.00000000000;1246.00000000000;1310.00000000000;1356.00000000000;1342.00000000000;1382.00000000000;1396.00000000000;1410.00000000000;1426.00000000000;1430.00000000000;1459.00000000000;1458.00000000000;1489.00000000000;1477.00000000000;1514.00000000000;1494.00000000000;1488.00000000000;1471.00000000000;1449.00000000000;1456.00000000000;1413.00000000000;1375.00000000000;1407.00000000000;1402.00000000000;1419.00000000000;1418.00000000000;1415.00000000000;1429.00000000000;1457.00000000000;1468.00000000000;1545.00000000000;1601.00000000000;1681.00000000000;1771.00000000000;1881.00000000000;1886.00000000000;1969.00000000000;2148.00000000000;2154.00000000000;2231.00000000000;2137.00000000000;2030.00000000000;2066.00000000000;1971.00000000000;1928.00000000000;1937.00000000000;1962.00000000000;2015.00000000000;2046.00000000000;2015.00000000000;2053.00000000000;2057.00000000000;2098.00000000000;2129.00000000000;2112.00000000000;2119.00000000000;2112.00000000000;2119.00000000000;2130.00000000000;2143.00000000000;2106.00000000000;2134.00000000000;2143.00000000000;2124.00000000000;2128.00000000000;2131.00000000000;2125.00000000000;2097.00000000000;2123.00000000000;2111.00000000000;2099.00000000000;2096.00000000000;2114.00000000000;2107.00000000000;2081.00000000000;2090.00000000000;2108.00000000000;2120.00000000000;2098.00000000000;2125.00000000000;2102.00000000000;2075.00000000000;2131.00000000000;2097.00000000000;2119.00000000000;2129.00000000000;2134.00000000000;2115.00000000000
Gyro Z : 2669.00000000000;2659.00000000000;2643.00000000000;2652.00000000000;2647.00000000000;2664.00000000000;2644.00000000000;2639.00000000000;2644.00000000000;2627.00000000000;2660.00000000000;2652.00000000000;2658.00000000000;2640.00000000000;2649.00000000000;2642.00000000000;2670.00000000000;2659.00000000000;2660.00000000000;2673.00000000000;2650.00000000000;2654.00000000000;2647.00000000000;2636.00000000000;2642.00000000000;2630.00000000000;2621.00000000000;2603.00000000000;2590.00000000000;2615.00000000000;2640.00000000000;2628.00000000000;2614.00000000000;2592.00000000000;2545.00000000000;2561.00000000000;2579.00000000000;2524.00000000000;2497.00000000000;2453.00000000000;2441.00000000000;2435.00000000000;2340.00000000000;2259.00000000000;2281.00000000000;2255.00000000000;2217.00000000000;2165.00000000000;2120.00000000000;2092.00000000000;2096.00000000000;2030.00000000000;2015.00000000000;2033.00000000000;2034.00000000000;1927.00000000000;2006.00000000000;1989.00000000000;1939.00000000000;1960.00000000000;1953.00000000000;1993.00000000000;1930.00000000000;1939.00000000000;1951.00000000000;1939.00000000000;1897.00000000000;1898.00000000000;1947.00000000000;1915.00000000000;1895.00000000000;1918.00000000000;1926.00000000000;1921.00000000000;1909.00000000000;1893.00000000000;1937.00000000000;1925.00000000000;1888.00000000000;1879.00000000000;1885.00000000000;1873.00000000000;1859.00000000000;1852.00000000000;1840.00000000000;1850.00000000000;1860.00000000000;1852.00000000000;1819.00000000000;1785.00000000000;1799.00000000000;1794.00000000000;1834.00000000000;1743.00000000000;1762.00000000000;1785.00000000000;1802.00000000000;1790.00000000000;1789.00000000000;1905.00000000000;1973.00000000000;2062.00000000000;2128.00000000000;1979.00000000000;2191.00000000000;2154.00000000000;2207.00000000000;2302.00000000000;2358.00000000000;2375.00000000000;2410.00000000000;2466.00000000000;2507.00000000000;2510.00000000000;2517.00000000000;2601.00000000000;2612.00000000000;2612.00000000000;2612.00000000000;2654.00000000000;2672.00000000000;2679.00000000000;2678.00000000000;2697.00000000000;2707.00000000000;2693.00000000000;2702.00000000000;2737.00000000000;2687.00000000000;2656.00000000000;2686.00000000000;2655.00000000000;2615.00000000000;2653.00000000000;2630.00000000000;2604.00000000000;2614.00000000000;2682.00000000000;2669.00000000000;2609.00000000000;2651.00000000000;2651.00000000000;2648.00000000000;2662.00000000000;2678.00000000000;2666.00000000000;2705.00000000000;2652.00000000000;2671.00000000000;2673.00000000000
