COMMAND 4 SAMPLE 1
Accel X : 1842.00000000000;1827.00000000000;1838.00000000000;1831.00000000000;1768.00000000000;1783.00000000000;1823.00000000000;1800.00000000000;1759.00000000000;1800.00000000000;1792.00000000000;1749.00000000000;1806.00000000000;1785.00000000000;1784.00000000000;1816.00000000000;1797.00000000000;1756.00000000000;1783.00000000000;1840.00000000000;1822.00000000000;1803.00000000000;1744.00000000000;1779.00000000000;1771.00000000000;1799.00000000000;1808.00000000000;1843.00000000000;1812.00000000000;1850.00000000000;1853.00000000000;1963.00000000000;2007.00000000000;1904.00000000000;1772.00000000000;1811.00000000000;1976.00000000000;1984.00000000000;1891.00000000000;1970.00000000000;2038.00000000000;1966.00000000000;2038.00000000000;2209.00000000000;2046.00000000000;1868.00000000000;1966.00000000000;2149.00000000000;2241.00000000000;2122.00000000000;1918.00000000000;1905.00000000000;2042.00000000000;2112.00000000000;2082.00000000000;2012.00000000000;2024.00000000000;2005.00000000000;1970.00000000000;1998.00000000000;2038.00000000000;2073.00000000000;2012.00000000000;2035.00000000000;1987.00000000000;1977.00000000000;2011.00000000000;2015.00000000000;1988.00000000000;1954.00000000000;2000.00000000000;1990.00000000000;1980.00000000000;2001.00000000000;2021.00000000000;1974.00000000000;1962.00000000000;1998.00000000000;1964.00000000000;1924.00000000000;1985.00000000000;2024.00000000000;1976.00000000000;1981.00000000000;1996.00000000000;2031.00000000000;2049.00000000000;2068.00000000000;2060.00000000000;2104.00000000000;2129.00000000000;2126.00000000000;2102.00000000000;2141.00000000000;2080.00000000000;2069.00000000000;2048.00000000000;2037.00000000000;1984.00000000000;1964.00000000000;1979.00000000000;2000.00000000000;1961.00000000000;1915.00000000000;1925.00000000000;1927.00000000000;1923.00000000000;1929.00000000000;1941.00000000000;1835.00000000000;1814.00000000000;1852.00000000000;1869.00000000000;1810.00000000000;1794.00000000000;1827.00000000000;1796.00000000000;1755.00000000000;1749.00000000000;1751.00000000000;1758.00000000000;1728.00000000000;1695.00000000000;1773.00000000000;1759.00000000000;1745.00000000000;1725.00000000000;1764.00000000000;1772.00000000000;1805.00000000000;1754.00000000000;1752.00000000000;1806.00000000000;1775.00000000000;1790.00000000000;1828.00000000000;1826.00000000000;1817.00000000000;1796.00000000000;1791.00000000000;1807.00000000000;1811.00000000000;1826.00000000000;1810.00000000000;1817.00000000000;1805.00000000000;1795.00000000000;1815.00000000000;1828.00000000000;1817.00000000000
Accel Y : 2044.00000000000;2045.00000000000;2034.00000000000;2046.00000000000;2033.00000000000;2045.00000000000;2050.00000000000;2074.00000000000;2056.00000000000;2053.00000000000;2048.00000000000;2076.00000000000;2067.00000000000;2055.00000000000;2047.00000000000;2050.00000000000;2059.00000000000;2090.00000000000;2041.00000000000;2057.00000000000;2040.00000000000;2054.00000000000;2036.00000000000;2039.00000000000;2066.00000000000;2063.00000000000;2058.00000000000;2047.00000000000;2068.00000000000;2104.00000000000;2181.00000000000;2125.00000000000;2229.00000000000;2351.00000000000;2366.00000000000;2375.00000000000;2483.00000000000;2596.00000000000;2597.00000000000;2653.00000000000;2781.00000000000;2835.00000000000;2807.00000000000;2882.00000000000;3043.00000000000;3052.00000000000;3045.00000000000;3115.00000000000;3132.00000000000;3187.00000000000;3190.00000000000;3184.00000000000;3216.00000000000;3206.00000000000;3191.00000000000;3168.00000000000;3100.00000000000;3140.00000000000;3160.00000000000;3119.00000000000;3115.00000000000;3108.00000000000;3041.00000000000;3035.00000000000;3019.00000000000;3022.00000000000;3035.00000000000;3021.00000000000;3014.00000000000;3032.00000000000;3019.00000000000;3052.00000000000;3040.00000000000;3050.00000000000;3059.00000000000;3073.00000000000;3085.00000000000;3123.00000000000;3151.00000000000;3166.00000000000;3182.00000000000;3217.00000000000;3228.00000000000;3272.00000000000;3284.00000000000;3307.00000000000;3307.00000000000;3366.00000000000;3334.00000000000;3299.00000000000;3295.00000000000;3251.00000000000;3152.00000000000;3099.00000000000;3049.00000000000;2984.00000000000;2893.00000000000;2837.00000000000;2732.00000000000;2685.00000000000;2569.00000000000;2522.00000000000;2474.00000000000;2409.00000000000;2350.00000000000;2309.00000000000;2247.00000000000;2190.00000000000;2159.00000000000;2148.00000000000;2106.00000000000;2078.00000000000;2075.00000000000;2066.00000000000;2015.00000000000;1984.00000000000;1997.00000000000;1968.00000000000;1993.00000000000;1958.00000000000;1959.00000000000;1962.00000000000;1918.00000000000;1938.00000000000;1954.00000000000;1968.00000000000;1941.00000000000;1947.00000000000;1960.00000000000;1975.00000000000;1979.00000000000;1968.00000000000;1989.00000000000;2002.00000000000;1987.00000000000;2005.00000000000;1991.00000000000;1951.00000000000;1967.00000000000;1988.00000000000;1975.00000000000;1972.00000000000;1976.00000000000;1981.00000000000;1954.00000000000;1971.00000000000;1963.00000000000;1963.00000000000;1977.00000000000;1979.00000000000
Accel Z : 2643.00000000000;2670.00000000000;2653.00000000000;2658.00000000000;2661.00000000000;2663.00000000000;2665.00000000000;2667.00000000000;2651.00000000000;2667.00000000000;2662.00000000000;2634.00000000000;2677.00000000000;2649.00000000000;2635.00000000000;2642.00000000000;2644.00000000000;2632.00000000000;2619.00000000000;2617.00000000000;2596.00000000000;2588.00000000000;2548.00000000000;2504.00000000000;2447.00000000000;2317.00000000000;2289.00000000000;2230.00000000000;2152.00000000000;2135.00000000000;2051.00000000000;2095.00000000000;2189.00000000000;2222.00000000000;2181.00000000000;2245.00000000000;2312.00000000000;2319.00000000000;2386.00000000000;2428.00000000000;2373.00000000000;2363.00000000000;2425.00000000000;2492.00000000000;2551.00000000000;2467.00000000000;2385.00000000000;2419.00000000000;2483.00000000000;2486.00000000000;2453.00000000000;2422.00000000000;2418.00000000000;2429.00000000000;2383.00000000000;2363.00000000000;2347.00000000000;2339.00000000000;2262.00000000000;2255.00000000000;2223.00000000000;2179.00000000000;2153.00000000000;2106.00000000000;2072.00000000000;2034.00000000000;2022.00000000000;2006.00000000000;1983.00000000000;1962.00000000000;1955.00000000000;1961.00000000000;1991.00000000000;2007.00000000000;2053.00000000000;2137.00000000000;2210.00000000000;2283.00000000000;2352.00000000000;2386.00000000000;2448.00000000000;2491.00000000000;2512.00000000000;2540.00000000000;2537.00000000000;2533.00000000000;2538.00000000000;2523.00000000000;2414.00000000000;2435.00000000000;2464.00000000000;2400.00000000000;2389.00000000000;2333.00000000000;2341.00000000000;2306.00000000000;2287.00000000000;2287.00000000000;2261.00000000000;2266.00000000000;2255.00000000000;2262.00000000000;2293.00000000000;2244.00000000000;2276.00000000000;2251.00000000000;2248.00000000000;2284.00000000000;2285.00000000000;2278.00000000000;2280.00000000000;2330.00000000000;2345.00000000000;2347.00000000000;2368.00000000000;2398.00000000000;2416.00000000000;2438.00000000000;2455.00000000000;2458.00000000000;2515.00000000000;2507.00000000000;2533.00000000000;2553.00000000000;2597.00000000000;2590.00000000000;2577.00000000000;2600.00000000000;2647.00000000000;2679.00000000000;2638.00000000000;2651.00000000000;2645.00000000000;2678.00000000000;2679.00000000000;2676.00000000000;2677.00000000000;2691.00000000000;2681.00000000000;2668.00000000000;2645.00000000000;2650.00000000000;2642.00000000000;2643.00000000000;2656.00000000000;2644.00000000000;2648.00000000000;2648.00000000000;2669.00000000000;2665.00000000000
Gyro X : 1842.00000000000;1827.00000000000;1838.00000000000;1831.00000000000;1768.00000000000;1783.00000000000;1823.00000000000;1800.00000000000;1759.00000000000;1800.00000000000;1792.00000000000;1749.00000000000;1806.00000000000;1785.00000000000;1784.00000000000;1816.00000000000;1797.00000000000;1756.00000000000;1783.00000000000;1840.00000000000;1822.00000000000;1803.00000000000;1744.00000000000;1779.00000000000;1771.00000000000;1799.00000000000;1808.00000000000;1843.00000000000;1812.00000000000;1850.00000000000;1853.00000000000;1963.00000000000;2007.00000000000;1904.00000000000;1772.00000000000;1811.00000000000;1976.00000000000;1984.00000000000;1891.00000000000;1970.00000000000;2038.00000000000;1966.00000000000;2038.00000000000;2209.00000000000;2046.00000000000;1868.00000000000;1966.00000000000;2149.00000000000;2241.00000000000;2122.00000000000;1918.00000000000;1905.00000000000;2042.00000000000;2112.00000000000;2082.00000000000;2012.00000000000;2024.00000000000;2005.00000000000;1970.00000000000;1998.00000000000;2038.00000000000;2073.00000000000;2012.00000000000;2035.00000000000;1987.00000000000;1977.00000000000;2011.00000000000;2015.00000000000;1988.00000000000;1954.00000000000;2000.00000000000;1990.00000000000;1980.00000000000;2001.00000000000;2021.00000000000;1974.00000000000;1962.00000000000;1998.00000000000;1964.00000000000;1924.00000000000;1985.00000000000;2024.00000000000;1976.00000000000;1981.00000000000;1996.00000000000;2031.00000000000;2049.00000000000;2068.00000000000;2060.00000000000;2104.00000000000;2129.00000000000;2126.00000000000;2102.00000000000;2141.00000000000;2080.00000000000;2069.00000000000;2048.00000000000;2037.00000000000;1984.00000000000;1964.00000000000;1979.00000000000;2000.00000000000;1961.00000000000;1915.00000000000;1925.00000000000;1927.00000000000;1923.00000000000;1929.00000000000;1941.00000000000;1835.00000000000;1814.00000000000;1852.00000000000;1869.00000000000;1810.00000000000;1794.00000000000;1827.00000000000;1796.00000000000;1755.00000000000;1749.00000000000;1751.00000000000;1758.00000000000;1728.00000000000;1695.00000000000;1773.00000000000;1759.00000000000;1745.00000000000;1725.00000000000;1764.00000000000;1772.00000000000;1805.00000000000;1754.00000000000;1752.00000000000;1806.00000000000;1775.00000000000;1790.00000000000;1828.00000000000;1826.00000000000;1817.00000000000;1796.00000000000;1791.00000000000;1807.00000000000;1811.00000000000;1826.00000000000;1810.00000000000;1817.00000000000;1805.00000000000;1795.00000000000;1815.00000000000;1828.00000000000;1817.00000000000
Gyro Y : 2044.00000000000;2045.00000000000;2034.00000000000;2046.00000000000;2033.00000000000;2045.00000000000;2050.00000000000;2074.00000000000;2056.00000000000;2053.00000000000;2048.00000000000;2076.00000000000;2067.00000000000;2055.00000000000;2047.00000000000;2050.00000000000;2059.00000000000;2090.00000000000;2041.00000000000;2057.00000000000;2040.00000000000;2054.00000000000;2036.00000000000;2039.00000000000;2066.00000000000;2063.00000000000;2058.00000000000;2047.00000000000;2068.00000000000;2104.00000000000;2181.00000000000;2125.00000000000;2229.00000000000;2351.00000000000;2366.00000000000;2375.00000000000;2483.00000000000;2596.00000000000;2597.00000000000;2653.00000000000;2781.00000000000;2835.00000000000;2807.00000000000;2882.00000000000;3043.00000000000;3052.00000000000;3045.00000000000;3115.00000000000;3132.00000000000;3187.00000000000;3190.00000000000;3184.00000000000;3216.00000000000;3206.00000000000;3191.00000000000;3168.00000000000;3100.00000000000;3140.00000000000;3160.00000000000;3119.00000000000;3115.00000000000;3108.00000000000;3041.00000000000;3035.00000000000;3019.00000000000;3022.00000000000;3035.00000000000;3021.00000000000;3014.00000000000;3032.00000000000;3019.00000000000;3052.00000000000;3040.00000000000;3050.00000000000;3059.00000000000;3073.00000000000;3085.00000000000;3123.00000000000;3151.00000000000;3166.00000000000;3182.00000000000;3217.00000000000;3228.00000000000;3272.00000000000;3284.00000000000;3307.00000000000;3307.00000000000;3366.00000000000;3334.00000000000;3299.00000000000;3295.00000000000;3251.00000000000;3152.00000000000;3099.00000000000;3049.00000000000;2984.00000000000;2893.00000000000;2837.00000000000;2732.00000000000;2685.00000000000;2569.00000000000;2522.00000000000;2474.00000000000;2409.00000000000;2350.00000000000;2309.00000000000;2247.00000000000;2190.00000000000;2159.00000000000;2148.00000000000;2106.00000000000;2078.00000000000;2075.00000000000;2066.00000000000;2015.00000000000;1984.00000000000;1997.00000000000;1968.00000000000;1993.00000000000;1958.00000000000;1959.00000000000;1962.00000000000;1918.00000000000;1938.00000000000;1954.00000000000;1968.00000000000;1941.00000000000;1947.00000000000;1960.00000000000;1975.00000000000;1979.00000000000;1968.00000000000;1989.00000000000;2002.00000000000;1987.00000000000;2005.00000000000;1991.00000000000;1951.00000000000;1967.00000000000;1988.00000000000;1975.00000000000;1972.00000000000;1976.00000000000;1981.00000000000;1954.00000000000;1971.00000000000;1963.00000000000;1963.00000000000;1977.00000000000;1979.00000000000
Gyro Z : 2643.00000000000;2670.00000000000;2653.00000000000;2658.00000000000;2661.00000000000;2663.00000000000;2665.00000000000;2667.00000000000;2651.00000000000;2667.00000000000;2662.00000000000;2634.00000000000;2677.00000000000;2649.00000000000;2635.00000000000;2642.00000000000;2644.00000000000;2632.00000000000;2619.00000000000;2617.00000000000;2596.00000000000;2588.00000000000;2548.00000000000;2504.00000000000;2447.00000000000;2317.00000000000;2289.00000000000;2230.00000000000;2152.00000000000;2135.00000000000;2051.00000000000;2095.00000000000;2189.00000000000;2222.00000000000;2181.00000000000;2245.00000000000;2312.00000000000;2319.00000000000;2386.00000000000;2428.00000000000;2373.00000000000;2363.00000000000;2425.00000000000;2492.00000000000;2551.00000000000;2467.00000000000;2385.00000000000;2419.00000000000;2483.00000000000;2486.00000000000;2453.00000000000;2422.00000000000;2418.00000000000;2429.00000000000;2383.00000000000;2363.00000000000;2347.00000000000;2339.00000000000;2262.00000000000;2255.00000000000;2223.00000000000;2179.00000000000;2153.00000000000;2106.00000000000;2072.00000000000;2034.00000000000;2022.00000000000;2006.00000000000;1983.00000000000;1962.00000000000;1955.00000000000;1961.00000000000;1991.00000000000;2007.00000000000;2053.00000000000;2137.00000000000;2210.00000000000;2283.00000000000;2352.00000000000;2386.00000000000;2448.00000000000;2491.00000000000;2512.00000000000;2540.00000000000;2537.00000000000;2533.00000000000;2538.00000000000;2523.00000000000;2414.00000000000;2435.00000000000;2464.00000000000;2400.00000000000;2389.00000000000;2333.00000000000;2341.00000000000;2306.00000000000;2287.00000000000;2287.00000000000;2261.00000000000;2266.00000000000;2255.00000000000;2262.00000000000;2293.00000000000;2244.00000000000;2276.00000000000;2251.00000000000;2248.00000000000;2284.00000000000;2285.00000000000;2278.00000000000;2280.00000000000;2330.00000000000;2345.00000000000;2347.00000000000;2368.00000000000;2398.00000000000;2416.00000000000;2438.00000000000;2455.00000000000;2458.00000000000;2515.00000000000;2507.00000000000;2533.00000000000;2553.00000000000;2597.00000000000;2590.00000000000;2577.00000000000;2600.00000000000;2647.00000000000;2679.00000000000;2638.00000000000;2651.00000000000;2645.00000000000;2678.00000000000;2679.00000000000;2676.00000000000;2677.00000000000;2691.00000000000;2681.00000000000;2668.00000000000;2645.00000000000;2650.00000000000;2642.00000000000;2643.00000000000;2656.00000000000;2644.00000000000;2648.00000000000;2648.00000000000;2669.00000000000;2665.00000000000
