COMMAND 4 SAMPLE 1
Accel X : 1743.00000000000;1793.00000000000;1771.00000000000;1764.00000000000;1789.00000000000;1768.00000000000;1761.00000000000;1803.00000000000;1797.00000000000;1766.00000000000;1800.00000000000;1806.00000000000;1800.00000000000;1823.00000000000;1778.00000000000;1798.00000000000;1812.00000000000;1805.00000000000;1797.00000000000;1832.00000000000;1804.00000000000;1779.00000000000;1805.00000000000;1830.00000000000;1798.00000000000;1794.00000000000;1817.00000000000;1836.00000000000;1791.00000000000;1794.00000000000;1783.00000000000;1844.00000000000;1916.00000000000;1759.00000000000;1742.00000000000;1870.00000000000;1946.00000000000;1962.00000000000;1914.00000000000;1942.00000000000;1941.00000000000;1992.00000000000;2050.00000000000;1970.00000000000;2002.00000000000;2056.00000000000;2098.00000000000;2097.00000000000;2087.00000000000;2146.00000000000;2159.00000000000;2107.00000000000;2102.00000000000;2181.00000000000;2211.00000000000;2151.00000000000;2032.00000000000;1983.00000000000;2041.00000000000;2198.00000000000;2292.00000000000;2239.00000000000;2156.00000000000;2106.00000000000;2081.00000000000;2129.00000000000;2198.00000000000;2175.00000000000;2117.00000000000;2045.00000000000;2090.00000000000;2107.00000000000;2115.00000000000;2093.00000000000;2106.00000000000;2139.00000000000;2139.00000000000;2120.00000000000;2163.00000000000;2192.00000000000;2154.00000000000;2191.00000000000;2212.00000000000;2238.00000000000;2201.00000000000;2225.00000000000;2277.00000000000;2260.00000000000;2209.00000000000;2233.00000000000;2268.00000000000;2192.00000000000;2215.00000000000;2220.00000000000;2197.00000000000;2165.00000000000;2136.00000000000;2141.00000000000;2087.00000000000;2062.00000000000;1987.00000000000;1966.00000000000;1935.00000000000;1945.00000000000;1878.00000000000;1854.00000000000;1808.00000000000;1821.00000000000;1829.00000000000;1829.00000000000;1821.00000000000;1770.00000000000;1754.00000000000;1762.00000000000;1804.00000000000;1772.00000000000;1754.00000000000;1751.00000000000;1778.00000000000;1780.00000000000;1758.00000000000;1735.00000000000;1722.00000000000;1701.00000000000;1698.00000000000;1712.00000000000;1708.00000000000;1683.00000000000;1696.00000000000;1714.00000000000;1727.00000000000;1727.00000000000;1722.00000000000;1683.00000000000;1729.00000000000;1723.00000000000;1731.00000000000;1734.00000000000;1754.00000000000;1750.00000000000;1756.00000000000;1780.00000000000;1796.00000000000;1804.00000000000;1759.00000000000;1718.00000000000;1744.00000000000;1732.00000000000;1755.00000000000;1729.00000000000
Accel Y : 2025.00000000000;2022.00000000000;2033.00000000000;2024.00000000000;2037.00000000000;2063.00000000000;2041.00000000000;2035.00000000000;2031.00000000000;2051.00000000000;2036.00000000000;2039.00000000000;2043.00000000000;2018.00000000000;2040.00000000000;2027.00000000000;2036.00000000000;2035.00000000000;2027.00000000000;2042.00000000000;2004.00000000000;2036.00000000000;2009.00000000000;2046.00000000000;2008.00000000000;1998.00000000000;1981.00000000000;2001.00000000000;2043.00000000000;2055.00000000000;2039.00000000000;2056.00000000000;2078.00000000000;2169.00000000000;2210.00000000000;2275.00000000000;2329.00000000000;2409.00000000000;2463.00000000000;2594.00000000000;2642.00000000000;2711.00000000000;2793.00000000000;2844.00000000000;2877.00000000000;2927.00000000000;3002.00000000000;3079.00000000000;3078.00000000000;3091.00000000000;3196.00000000000;3263.00000000000;3200.00000000000;3156.00000000000;3240.00000000000;3237.00000000000;3255.00000000000;3235.00000000000;3183.00000000000;3156.00000000000;3111.00000000000;3102.00000000000;3098.00000000000;3078.00000000000;3074.00000000000;3055.00000000000;3034.00000000000;3031.00000000000;3038.00000000000;3028.00000000000;3047.00000000000;3047.00000000000;3057.00000000000;3073.00000000000;3083.00000000000;3086.00000000000;3125.00000000000;3153.00000000000;3153.00000000000;3163.00000000000;3175.00000000000;3198.00000000000;3195.00000000000;3223.00000000000;3227.00000000000;3233.00000000000;3237.00000000000;3203.00000000000;3189.00000000000;3124.00000000000;3087.00000000000;3042.00000000000;2960.00000000000;2905.00000000000;2847.00000000000;2784.00000000000;2716.00000000000;2639.00000000000;2592.00000000000;2513.00000000000;2468.00000000000;2385.00000000000;2336.00000000000;2280.00000000000;2241.00000000000;2203.00000000000;2149.00000000000;2119.00000000000;2075.00000000000;2090.00000000000;2039.00000000000;2019.00000000000;2032.00000000000;1971.00000000000;1975.00000000000;1991.00000000000;1975.00000000000;1975.00000000000;1934.00000000000;1939.00000000000;1925.00000000000;1925.00000000000;1926.00000000000;1924.00000000000;1929.00000000000;1948.00000000000;1934.00000000000;1923.00000000000;1924.00000000000;1944.00000000000;1926.00000000000;1912.00000000000;1940.00000000000;1928.00000000000;1941.00000000000;1929.00000000000;1927.00000000000;1929.00000000000;1931.00000000000;1933.00000000000;1922.00000000000;1925.00000000000;1908.00000000000;1908.00000000000;1948.00000000000;1944.00000000000;1942.00000000000;1963.00000000000;1941.00000000000;1929.00000000000
Accel Z : 2641.00000000000;2646.00000000000;2637.00000000000;2628.00000000000;2638.00000000000;2624.00000000000;2659.00000000000;2662.00000000000;2682.00000000000;2709.00000000000;2699.00000000000;2681.00000000000;2708.00000000000;2688.00000000000;2688.00000000000;2688.00000000000;2691.00000000000;2694.00000000000;2689.00000000000;2671.00000000000;2662.00000000000;2649.00000000000;2638.00000000000;2605.00000000000;2552.00000000000;2553.00000000000;2499.00000000000;2377.00000000000;2339.00000000000;2225.00000000000;2136.00000000000;2154.00000000000;2161.00000000000;2069.00000000000;2057.00000000000;2113.00000000000;2131.00000000000;2176.00000000000;2250.00000000000;2310.00000000000;2334.00000000000;2341.00000000000;2417.00000000000;2430.00000000000;2448.00000000000;2479.00000000000;2471.00000000000;2432.00000000000;2485.00000000000;2539.00000000000;2543.00000000000;2434.00000000000;2435.00000000000;2505.00000000000;2443.00000000000;2365.00000000000;2390.00000000000;2310.00000000000;2254.00000000000;2273.00000000000;2302.00000000000;2272.00000000000;2198.00000000000;2201.00000000000;2187.00000000000;2200.00000000000;2196.00000000000;2172.00000000000;2187.00000000000;2157.00000000000;2195.00000000000;2213.00000000000;2222.00000000000;2223.00000000000;2257.00000000000;2327.00000000000;2336.00000000000;2370.00000000000;2373.00000000000;2421.00000000000;2434.00000000000;2426.00000000000;2484.00000000000;2461.00000000000;2450.00000000000;2450.00000000000;2407.00000000000;2440.00000000000;2460.00000000000;2381.00000000000;2365.00000000000;2442.00000000000;2372.00000000000;2395.00000000000;2376.00000000000;2359.00000000000;2329.00000000000;2334.00000000000;2315.00000000000;2294.00000000000;2326.00000000000;2304.00000000000;2320.00000000000;2324.00000000000;2345.00000000000;2323.00000000000;2333.00000000000;2343.00000000000;2367.00000000000;2364.00000000000;2351.00000000000;2383.00000000000;2378.00000000000;2396.00000000000;2412.00000000000;2383.00000000000;2421.00000000000;2455.00000000000;2468.00000000000;2462.00000000000;2487.00000000000;2492.00000000000;2537.00000000000;2542.00000000000;2569.00000000000;2602.00000000000;2595.00000000000;2627.00000000000;2604.00000000000;2631.00000000000;2615.00000000000;2649.00000000000;2628.00000000000;2643.00000000000;2666.00000000000;2631.00000000000;2627.00000000000;2655.00000000000;2630.00000000000;2614.00000000000;2595.00000000000;2595.00000000000;2603.00000000000;2645.00000000000;2651.00000000000;2627.00000000000;2650.00000000000;2661.00000000000;2657.00000000000;2656.00000000000
Gyro X : 1743.00000000000;1793.00000000000;1771.00000000000;1764.00000000000;1789.00000000000;1768.00000000000;1761.00000000000;1803.00000000000;1797.00000000000;1766.00000000000;1800.00000000000;1806.00000000000;1800.00000000000;1823.00000000000;1778.00000000000;1798.00000000000;1812.00000000000;1805.00000000000;1797.00000000000;1832.00000000000;1804.00000000000;1779.00000000000;1805.00000000000;1830.00000000000;1798.00000000000;1794.00000000000;1817.00000000000;1836.00000000000;1791.00000000000;1794.00000000000;1783.00000000000;1844.00000000000;1916.00000000000;1759.00000000000;1742.00000000000;1870.00000000000;1946.00000000000;1962.00000000000;1914.00000000000;1942.00000000000;1941.00000000000;1992.00000000000;2050.00000000000;1970.00000000000;2002.00000000000;2056.00000000000;2098.00000000000;2097.00000000000;2087.00000000000;2146.00000000000;2159.00000000000;2107.00000000000;2102.00000000000;2181.00000000000;2211.00000000000;2151.00000000000;2032.00000000000;1983.00000000000;2041.00000000000;2198.00000000000;2292.00000000000;2239.00000000000;2156.00000000000;2106.00000000000;2081.00000000000;2129.00000000000;2198.00000000000;2175.00000000000;2117.00000000000;2045.00000000000;2090.00000000000;2107.00000000000;2115.00000000000;2093.00000000000;2106.00000000000;2139.00000000000;2139.00000000000;2120.00000000000;2163.00000000000;2192.00000000000;2154.00000000000;2191.00000000000;2212.00000000000;2238.00000000000;2201.00000000000;2225.00000000000;2277.00000000000;2260.00000000000;2209.00000000000;2233.00000000000;2268.00000000000;2192.00000000000;2215.00000000000;2220.00000000000;2197.00000000000;2165.00000000000;2136.00000000000;2141.00000000000;2087.00000000000;2062.00000000000;1987.00000000000;1966.00000000000;1935.00000000000;1945.00000000000;1878.00000000000;1854.00000000000;1808.00000000000;1821.00000000000;1829.00000000000;1829.00000000000;1821.00000000000;1770.00000000000;1754.00000000000;1762.00000000000;1804.00000000000;1772.00000000000;1754.00000000000;1751.00000000000;1778.00000000000;1780.00000000000;1758.00000000000;1735.00000000000;1722.00000000000;1701.00000000000;1698.00000000000;1712.00000000000;1708.00000000000;1683.00000000000;1696.00000000000;1714.00000000000;1727.00000000000;1727.00000000000;1722.00000000000;1683.00000000000;1729.00000000000;1723.00000000000;1731.00000000000;1734.00000000000;1754.00000000000;1750.00000000000;1756.00000000000;1780.00000000000;1796.00000000000;1804.00000000000;1759.00000000000;1718.00000000000;1744.00000000000;1732.00000000000;1755.00000000000;1729.00000000000
Gyro Y : 2025.00000000000;2022.00000000000;2033.00000000000;2024.00000000000;2037.00000000000;2063.00000000000;2041.00000000000;2035.00000000000;2031.00000000000;2051.00000000000;2036.00000000000;2039.00000000000;2043.00000000000;2018.00000000000;2040.00000000000;2027.00000000000;2036.00000000000;2035.00000000000;2027.00000000000;2042.00000000000;2004.00000000000;2036.00000000000;2009.00000000000;2046.00000000000;2008.00000000000;1998.00000000000;1981.00000000000;2001.00000000000;2043.00000000000;2055.00000000000;2039.00000000000;2056.00000000000;2078.00000000000;2169.00000000000;2210.00000000000;2275.00000000000;2329.00000000000;2409.00000000000;2463.00000000000;2594.00000000000;2642.00000000000;2711.00000000000;2793.00000000000;2844.00000000000;2877.00000000000;2927.00000000000;3002.00000000000;3079.00000000000;3078.00000000000;3091.00000000000;3196.00000000000;3263.00000000000;3200.00000000000;3156.00000000000;3240.00000000000;3237.00000000000;3255.00000000000;3235.00000000000;3183.00000000000;3156.00000000000;3111.00000000000;3102.00000000000;3098.00000000000;3078.00000000000;3074.00000000000;3055.00000000000;3034.00000000000;3031.00000000000;3038.00000000000;3028.00000000000;3047.00000000000;3047.00000000000;3057.00000000000;3073.00000000000;3083.00000000000;3086.00000000000;3125.00000000000;3153.00000000000;3153.00000000000;3163.00000000000;3175.00000000000;3198.00000000000;3195.00000000000;3223.00000000000;3227.00000000000;3233.00000000000;3237.00000000000;3203.00000000000;3189.00000000000;3124.00000000000;3087.00000000000;3042.00000000000;2960.00000000000;2905.00000000000;2847.00000000000;2784.00000000000;2716.00000000000;2639.00000000000;2592.00000000000;2513.00000000000;2468.00000000000;2385.00000000000;2336.00000000000;2280.00000000000;2241.00000000000;2203.00000000000;2149.00000000000;2119.00000000000;2075.00000000000;2090.00000000000;2039.00000000000;2019.00000000000;2032.00000000000;1971.00000000000;1975.00000000000;1991.00000000000;1975.00000000000;1975.00000000000;1934.00000000000;1939.00000000000;1925.00000000000;1925.00000000000;1926.00000000000;1924.00000000000;1929.00000000000;1948.00000000000;1934.00000000000;1923.00000000000;1924.00000000000;1944.00000000000;1926.00000000000;1912.00000000000;1940.00000000000;1928.00000000000;1941.00000000000;1929.00000000000;1927.00000000000;1929.00000000000;1931.00000000000;1933.00000000000;1922.00000000000;1925.00000000000;1908.00000000000;1908.00000000000;1948.00000000000;1944.00000000000;1942.00000000000;1963.00000000000;1941.00000000000;1929.00000000000
Gyro Z : 2641.00000000000;2646.00000000000;2637.00000000000;2628.00000000000;2638.00000000000;2624.00000000000;2659.00000000000;2662.00000000000;2682.00000000000;2709.00000000000;2699.00000000000;2681.00000000000;2708.00000000000;2688.00000000000;2688.00000000000;2688.00000000000;2691.00000000000;2694.00000000000;2689.00000000000;2671.00000000000;2662.00000000000;2649.00000000000;2638.00000000000;2605.00000000000;2552.00000000000;2553.00000000000;2499.00000000000;2377.00000000000;2339.00000000000;2225.00000000000;2136.00000000000;2154.00000000000;2161.00000000000;2069.00000000000;2057.00000000000;2113.00000000000;2131.00000000000;2176.00000000000;2250.00000000000;2310.00000000000;2334.00000000000;2341.00000000000;2417.00000000000;2430.00000000000;2448.00000000000;2479.00000000000;2471.00000000000;2432.00000000000;2485.00000000000;2539.00000000000;2543.00000000000;2434.00000000000;2435.00000000000;2505.00000000000;2443.00000000000;2365.00000000000;2390.00000000000;2310.00000000000;2254.00000000000;2273.00000000000;2302.00000000000;2272.00000000000;2198.00000000000;2201.00000000000;2187.00000000000;2200.00000000000;2196.00000000000;2172.00000000000;2187.00000000000;2157.00000000000;2195.00000000000;2213.00000000000;2222.00000000000;2223.00000000000;2257.00000000000;2327.00000000000;2336.00000000000;2370.00000000000;2373.00000000000;2421.00000000000;2434.00000000000;2426.00000000000;2484.00000000000;2461.00000000000;2450.00000000000;2450.00000000000;2407.00000000000;2440.00000000000;2460.00000000000;2381.00000000000;2365.00000000000;2442.00000000000;2372.00000000000;2395.00000000000;2376.00000000000;2359.00000000000;2329.00000000000;2334.00000000000;2315.00000000000;2294.00000000000;2326.00000000000;2304.00000000000;2320.00000000000;2324.00000000000;2345.00000000000;2323.00000000000;2333.00000000000;2343.00000000000;2367.00000000000;2364.00000000000;2351.00000000000;2383.00000000000;2378.00000000000;2396.00000000000;2412.00000000000;2383.00000000000;2421.00000000000;2455.00000000000;2468.00000000000;2462.00000000000;2487.00000000000;2492.00000000000;2537.00000000000;2542.00000000000;2569.00000000000;2602.00000000000;2595.00000000000;2627.00000000000;2604.00000000000;2631.00000000000;2615.00000000000;2649.00000000000;2628.00000000000;2643.00000000000;2666.00000000000;2631.00000000000;2627.00000000000;2655.00000000000;2630.00000000000;2614.00000000000;2595.00000000000;2595.00000000000;2603.00000000000;2645.00000000000;2651.00000000000;2627.00000000000;2650.00000000000;2661.00000000000;2657.00000000000;2656.00000000000
