COMMAND 4 SAMPLE 1
Accel X : 1723.00000000000;1704.00000000000;1681.00000000000;1686.00000000000;1692.00000000000;1681.00000000000;1694.00000000000;1714.00000000000;1673.00000000000;1676.00000000000;1696.00000000000;1689.00000000000;1657.00000000000;1657.00000000000;1663.00000000000;1660.00000000000;1674.00000000000;1640.00000000000;1665.00000000000;1670.00000000000;1647.00000000000;1654.00000000000;1644.00000000000;1663.00000000000;1636.00000000000;1618.00000000000;1597.00000000000;1672.00000000000;1692.00000000000;1670.00000000000;1598.00000000000;1640.00000000000;1800.00000000000;1824.00000000000;1784.00000000000;1723.00000000000;1735.00000000000;1898.00000000000;2050.00000000000;2056.00000000000;1996.00000000000;1963.00000000000;2017.00000000000;2121.00000000000;2181.00000000000;2043.00000000000;1992.00000000000;2115.00000000000;2223.00000000000;2123.00000000000;2139.00000000000;2223.00000000000;2226.00000000000;2226.00000000000;2120.00000000000;2166.00000000000;2256.00000000000;2206.00000000000;2124.00000000000;2169.00000000000;2237.00000000000;2207.00000000000;2198.00000000000;2155.00000000000;2055.00000000000;2101.00000000000;2204.00000000000;2208.00000000000;2156.00000000000;2070.00000000000;2072.00000000000;2135.00000000000;2129.00000000000;2120.00000000000;2056.00000000000;2029.00000000000;2102.00000000000;2132.00000000000;2133.00000000000;2093.00000000000;2085.00000000000;2113.00000000000;2132.00000000000;2114.00000000000;2105.00000000000;2138.00000000000;2178.00000000000;2158.00000000000;2130.00000000000;2150.00000000000;2141.00000000000;2184.00000000000;2233.00000000000;2229.00000000000;2204.00000000000;2201.00000000000;2205.00000000000;2250.00000000000;2140.00000000000;2150.00000000000;2126.00000000000;2115.00000000000;2051.00000000000;2079.00000000000;2045.00000000000;2016.00000000000;2019.00000000000;1993.00000000000;1979.00000000000;2024.00000000000;1949.00000000000;1917.00000000000;1908.00000000000;1880.00000000000;1822.00000000000;1830.00000000000;1838.00000000000;1742.00000000000;1806.00000000000;1817.00000000000;1800.00000000000;1755.00000000000;1771.00000000000;1805.00000000000;1800.00000000000;1766.00000000000;1766.00000000000;1759.00000000000;1776.00000000000;1814.00000000000;1821.00000000000;1794.00000000000;1815.00000000000;1797.00000000000;1804.00000000000;1819.00000000000;1779.00000000000;1795.00000000000;1838.00000000000;1820.00000000000;1829.00000000000;1843.00000000000;1853.00000000000;1840.00000000000;1846.00000000000;1823.00000000000;1832.00000000000;1863.00000000000;1853.00000000000;1832.00000000000
Accel Y : 2013.00000000000;1996.00000000000;2011.00000000000;1980.00000000000;2015.00000000000;1979.00000000000;1981.00000000000;1989.00000000000;2015.00000000000;1987.00000000000;1986.00000000000;2012.00000000000;2007.00000000000;2005.00000000000;1983.00000000000;2002.00000000000;2015.00000000000;2020.00000000000;1971.00000000000;2010.00000000000;2014.00000000000;2017.00000000000;2012.00000000000;2003.00000000000;2022.00000000000;2019.00000000000;1997.00000000000;2002.00000000000;2022.00000000000;2024.00000000000;2016.00000000000;2028.00000000000;2009.00000000000;2055.00000000000;2032.00000000000;2107.00000000000;2141.00000000000;2124.00000000000;2132.00000000000;2226.00000000000;2308.00000000000;2338.00000000000;2337.00000000000;2394.00000000000;2555.00000000000;2661.00000000000;2668.00000000000;2730.00000000000;2840.00000000000;2949.00000000000;3014.00000000000;2993.00000000000;3073.00000000000;3159.00000000000;3172.00000000000;3151.00000000000;3169.00000000000;3227.00000000000;3193.00000000000;3171.00000000000;3171.00000000000;3154.00000000000;3135.00000000000;3131.00000000000;3100.00000000000;3100.00000000000;3093.00000000000;3094.00000000000;3069.00000000000;3056.00000000000;3055.00000000000;3055.00000000000;3001.00000000000;3037.00000000000;3022.00000000000;3060.00000000000;3060.00000000000;3041.00000000000;3069.00000000000;3073.00000000000;3083.00000000000;3091.00000000000;3102.00000000000;3122.00000000000;3171.00000000000;3171.00000000000;3201.00000000000;3235.00000000000;3269.00000000000;3295.00000000000;3332.00000000000;3341.00000000000;3313.00000000000;3364.00000000000;3330.00000000000;3313.00000000000;3254.00000000000;3203.00000000000;3151.00000000000;3106.00000000000;3007.00000000000;2951.00000000000;2871.00000000000;2819.00000000000;2743.00000000000;2649.00000000000;2592.00000000000;2492.00000000000;2399.00000000000;2324.00000000000;2267.00000000000;2184.00000000000;2098.00000000000;2081.00000000000;2030.00000000000;2007.00000000000;1962.00000000000;1937.00000000000;1875.00000000000;1881.00000000000;1866.00000000000;1853.00000000000;1868.00000000000;1851.00000000000;1826.00000000000;1862.00000000000;1855.00000000000;1875.00000000000;1881.00000000000;1884.00000000000;1871.00000000000;1889.00000000000;1882.00000000000;1878.00000000000;1894.00000000000;1915.00000000000;1895.00000000000;1882.00000000000;1933.00000000000;1925.00000000000;1919.00000000000;1914.00000000000;1955.00000000000;1913.00000000000;1930.00000000000;1923.00000000000;1937.00000000000;1912.00000000000;1928.00000000000;1941.00000000000
Accel Z : 2627.00000000000;2630.00000000000;2623.00000000000;2637.00000000000;2656.00000000000;2627.00000000000;2656.00000000000;2664.00000000000;2618.00000000000;2621.00000000000;2621.00000000000;2626.00000000000;2630.00000000000;2621.00000000000;2614.00000000000;2627.00000000000;2632.00000000000;2594.00000000000;2604.00000000000;2601.00000000000;2619.00000000000;2600.00000000000;2608.00000000000;2570.00000000000;2567.00000000000;2583.00000000000;2546.00000000000;2505.00000000000;2504.00000000000;2469.00000000000;2392.00000000000;2295.00000000000;2301.00000000000;2240.00000000000;2253.00000000000;2188.00000000000;2168.00000000000;2076.00000000000;2108.00000000000;2176.00000000000;2187.00000000000;2136.00000000000;2157.00000000000;2278.00000000000;2311.00000000000;2346.00000000000;2306.00000000000;2369.00000000000;2457.00000000000;2528.00000000000;2482.00000000000;2466.00000000000;2535.00000000000;2534.00000000000;2507.00000000000;2524.00000000000;2533.00000000000;2501.00000000000;2510.00000000000;2484.00000000000;2444.00000000000;2446.00000000000;2432.00000000000;2375.00000000000;2348.00000000000;2271.00000000000;2242.00000000000;2228.00000000000;2162.00000000000;2142.00000000000;2126.00000000000;2103.00000000000;2118.00000000000;2101.00000000000;2084.00000000000;2105.00000000000;2104.00000000000;2130.00000000000;2172.00000000000;2178.00000000000;2191.00000000000;2256.00000000000;2314.00000000000;2340.00000000000;2401.00000000000;2439.00000000000;2451.00000000000;2514.00000000000;2542.00000000000;2565.00000000000;2533.00000000000;2522.00000000000;2548.00000000000;2576.00000000000;2525.00000000000;2507.00000000000;2482.00000000000;2447.00000000000;2493.00000000000;2394.00000000000;2396.00000000000;2370.00000000000;2348.00000000000;2320.00000000000;2287.00000000000;2253.00000000000;2237.00000000000;2198.00000000000;2198.00000000000;2159.00000000000;2151.00000000000;2107.00000000000;2130.00000000000;2160.00000000000;2194.00000000000;2170.00000000000;2164.00000000000;2211.00000000000;2251.00000000000;2309.00000000000;2300.00000000000;2345.00000000000;2371.00000000000;2428.00000000000;2458.00000000000;2526.00000000000;2542.00000000000;2563.00000000000;2571.00000000000;2607.00000000000;2619.00000000000;2611.00000000000;2607.00000000000;2636.00000000000;2651.00000000000;2659.00000000000;2657.00000000000;2671.00000000000;2701.00000000000;2656.00000000000;2633.00000000000;2660.00000000000;2654.00000000000;2686.00000000000;2660.00000000000;2657.00000000000;2655.00000000000;2666.00000000000;2682.00000000000;2688.00000000000
Gyro X : 1723.00000000000;1704.00000000000;1681.00000000000;1686.00000000000;1692.00000000000;1681.00000000000;1694.00000000000;1714.00000000000;1673.00000000000;1676.00000000000;1696.00000000000;1689.00000000000;1657.00000000000;1657.00000000000;1663.00000000000;1660.00000000000;1674.00000000000;1640.00000000000;1665.00000000000;1670.00000000000;1647.00000000000;1654.00000000000;1644.00000000000;1663.00000000000;1636.00000000000;1618.00000000000;1597.00000000000;1672.00000000000;1692.00000000000;1670.00000000000;1598.00000000000;1640.00000000000;1800.00000000000;1824.00000000000;1784.00000000000;1723.00000000000;1735.00000000000;1898.00000000000;2050.00000000000;2056.00000000000;1996.00000000000;1963.00000000000;2017.00000000000;2121.00000000000;2181.00000000000;2043.00000000000;1992.00000000000;2115.00000000000;2223.00000000000;2123.00000000000;2139.00000000000;2223.00000000000;2226.00000000000;2226.00000000000;2120.00000000000;2166.00000000000;2256.00000000000;2206.00000000000;2124.00000000000;2169.00000000000;2237.00000000000;2207.00000000000;2198.00000000000;2155.00000000000;2055.00000000000;2101.00000000000;2204.00000000000;2208.00000000000;2156.00000000000;2070.00000000000;2072.00000000000;2135.00000000000;2129.00000000000;2120.00000000000;2056.00000000000;2029.00000000000;2102.00000000000;2132.00000000000;2133.00000000000;2093.00000000000;2085.00000000000;2113.00000000000;2132.00000000000;2114.00000000000;2105.00000000000;2138.00000000000;2178.00000000000;2158.00000000000;2130.00000000000;2150.00000000000;2141.00000000000;2184.00000000000;2233.00000000000;2229.00000000000;2204.00000000000;2201.00000000000;2205.00000000000;2250.00000000000;2140.00000000000;2150.00000000000;2126.00000000000;2115.00000000000;2051.00000000000;2079.00000000000;2045.00000000000;2016.00000000000;2019.00000000000;1993.00000000000;1979.00000000000;2024.00000000000;1949.00000000000;1917.00000000000;1908.00000000000;1880.00000000000;1822.00000000000;1830.00000000000;1838.00000000000;1742.00000000000;1806.00000000000;1817.00000000000;1800.00000000000;1755.00000000000;1771.00000000000;1805.00000000000;1800.00000000000;1766.00000000000;1766.00000000000;1759.00000000000;1776.00000000000;1814.00000000000;1821.00000000000;1794.00000000000;1815.00000000000;1797.00000000000;1804.00000000000;1819.00000000000;1779.00000000000;1795.00000000000;1838.00000000000;1820.00000000000;1829.00000000000;1843.00000000000;1853.00000000000;1840.00000000000;1846.00000000000;1823.00000000000;1832.00000000000;1863.00000000000;1853.00000000000;1832.00000000000
Gyro Y : 2013.00000000000;1996.00000000000;2011.00000000000;1980.00000000000;2015.00000000000;1979.00000000000;1981.00000000000;1989.00000000000;2015.00000000000;1987.00000000000;1986.00000000000;2012.00000000000;2007.00000000000;2005.00000000000;1983.00000000000;2002.00000000000;2015.00000000000;2020.00000000000;1971.00000000000;2010.00000000000;2014.00000000000;2017.00000000000;2012.00000000000;2003.00000000000;2022.00000000000;2019.00000000000;1997.00000000000;2002.00000000000;2022.00000000000;2024.00000000000;2016.00000000000;2028.00000000000;2009.00000000000;2055.00000000000;2032.00000000000;2107.00000000000;2141.00000000000;2124.00000000000;2132.00000000000;2226.00000000000;2308.00000000000;2338.00000000000;2337.00000000000;2394.00000000000;2555.00000000000;2661.00000000000;2668.00000000000;2730.00000000000;2840.00000000000;2949.00000000000;3014.00000000000;2993.00000000000;3073.00000000000;3159.00000000000;3172.00000000000;3151.00000000000;3169.00000000000;3227.00000000000;3193.00000000000;3171.00000000000;3171.00000000000;3154.00000000000;3135.00000000000;3131.00000000000;3100.00000000000;3100.00000000000;3093.00000000000;3094.00000000000;3069.00000000000;3056.00000000000;3055.00000000000;3055.00000000000;3001.00000000000;3037.00000000000;3022.00000000000;3060.00000000000;3060.00000000000;3041.00000000000;3069.00000000000;3073.00000000000;3083.00000000000;3091.00000000000;3102.00000000000;3122.00000000000;3171.00000000000;3171.00000000000;3201.00000000000;3235.00000000000;3269.00000000000;3295.00000000000;3332.00000000000;3341.00000000000;3313.00000000000;3364.00000000000;3330.00000000000;3313.00000000000;3254.00000000000;3203.00000000000;3151.00000000000;3106.00000000000;3007.00000000000;2951.00000000000;2871.00000000000;2819.00000000000;2743.00000000000;2649.00000000000;2592.00000000000;2492.00000000000;2399.00000000000;2324.00000000000;2267.00000000000;2184.00000000000;2098.00000000000;2081.00000000000;2030.00000000000;2007.00000000000;1962.00000000000;1937.00000000000;1875.00000000000;1881.00000000000;1866.00000000000;1853.00000000000;1868.00000000000;1851.00000000000;1826.00000000000;1862.00000000000;1855.00000000000;1875.00000000000;1881.00000000000;1884.00000000000;1871.00000000000;1889.00000000000;1882.00000000000;1878.00000000000;1894.00000000000;1915.00000000000;1895.00000000000;1882.00000000000;1933.00000000000;1925.00000000000;1919.00000000000;1914.00000000000;1955.00000000000;1913.00000000000;1930.00000000000;1923.00000000000;1937.00000000000;1912.00000000000;1928.00000000000;1941.00000000000
Gyro Z : 2627.00000000000;2630.00000000000;2623.00000000000;2637.00000000000;2656.00000000000;2627.00000000000;2656.00000000000;2664.00000000000;2618.00000000000;2621.00000000000;2621.00000000000;2626.00000000000;2630.00000000000;2621.00000000000;2614.00000000000;2627.00000000000;2632.00000000000;2594.00000000000;2604.00000000000;2601.00000000000;2619.00000000000;2600.00000000000;2608.00000000000;2570.00000000000;2567.00000000000;2583.00000000000;2546.00000000000;2505.00000000000;2504.00000000000;2469.00000000000;2392.00000000000;2295.00000000000;2301.00000000000;2240.00000000000;2253.00000000000;2188.00000000000;2168.00000000000;2076.00000000000;2108.00000000000;2176.00000000000;2187.00000000000;2136.00000000000;2157.00000000000;2278.00000000000;2311.00000000000;2346.00000000000;2306.00000000000;2369.00000000000;2457.00000000000;2528.00000000000;2482.00000000000;2466.00000000000;2535.00000000000;2534.00000000000;2507.00000000000;2524.00000000000;2533.00000000000;2501.00000000000;2510.00000000000;2484.00000000000;2444.00000000000;2446.00000000000;2432.00000000000;2375.00000000000;2348.00000000000;2271.00000000000;2242.00000000000;2228.00000000000;2162.00000000000;2142.00000000000;2126.00000000000;2103.00000000000;2118.00000000000;2101.00000000000;2084.00000000000;2105.00000000000;2104.00000000000;2130.00000000000;2172.00000000000;2178.00000000000;2191.00000000000;2256.00000000000;2314.00000000000;2340.00000000000;2401.00000000000;2439.00000000000;2451.00000000000;2514.00000000000;2542.00000000000;2565.00000000000;2533.00000000000;2522.00000000000;2548.00000000000;2576.00000000000;2525.00000000000;2507.00000000000;2482.00000000000;2447.00000000000;2493.00000000000;2394.00000000000;2396.00000000000;2370.00000000000;2348.00000000000;2320.00000000000;2287.00000000000;2253.00000000000;2237.00000000000;2198.00000000000;2198.00000000000;2159.00000000000;2151.00000000000;2107.00000000000;2130.00000000000;2160.00000000000;2194.00000000000;2170.00000000000;2164.00000000000;2211.00000000000;2251.00000000000;2309.00000000000;2300.00000000000;2345.00000000000;2371.00000000000;2428.00000000000;2458.00000000000;2526.00000000000;2542.00000000000;2563.00000000000;2571.00000000000;2607.00000000000;2619.00000000000;2611.00000000000;2607.00000000000;2636.00000000000;2651.00000000000;2659.00000000000;2657.00000000000;2671.00000000000;2701.00000000000;2656.00000000000;2633.00000000000;2660.00000000000;2654.00000000000;2686.00000000000;2660.00000000000;2657.00000000000;2655.00000000000;2666.00000000000;2682.00000000000;2688.00000000000
