COMMAND 2 SAMPLE 1
Accel X : 1741.00000000000;1753.00000000000;1727.00000000000;1710.00000000000;1733.00000000000;1731.00000000000;1726.00000000000;1728.00000000000;1725.00000000000;1718.00000000000;1709.00000000000;1749.00000000000;1745.00000000000;1735.00000000000;1705.00000000000;1717.00000000000;1701.00000000000;1701.00000000000;1706.00000000000;1724.00000000000;1725.00000000000;1726.00000000000;1729.00000000000;1713.00000000000;1700.00000000000;1695.00000000000;1670.00000000000;1645.00000000000;1597.00000000000;1599.00000000000;1559.00000000000;1570.00000000000;1526.00000000000;1541.00000000000;1587.00000000000;1632.00000000000;1640.00000000000;1676.00000000000;1801.00000000000;1944.00000000000;2027.00000000000;2030.00000000000;2071.00000000000;2125.00000000000;2201.00000000000;2286.00000000000;2401.00000000000;2449.00000000000;2502.00000000000;2547.00000000000;2568.00000000000;2574.00000000000;2598.00000000000;2646.00000000000;2706.00000000000;2753.00000000000;2807.00000000000;2881.00000000000;2825.00000000000;2844.00000000000;2879.00000000000;2923.00000000000;2903.00000000000;2922.00000000000;2959.00000000000;2927.00000000000;2945.00000000000;2984.00000000000;2991.00000000000;2987.00000000000;2985.00000000000;2947.00000000000;2957.00000000000;2947.00000000000;2888.00000000000;2896.00000000000;2970.00000000000;2958.00000000000;2877.00000000000;2883.00000000000;2930.00000000000;2922.00000000000;2903.00000000000;2993.00000000000;2979.00000000000;2986.00000000000;2989.00000000000;2973.00000000000;2978.00000000000;2994.00000000000;3005.00000000000;3036.00000000000;3052.00000000000;3014.00000000000;2990.00000000000;3027.00000000000;2980.00000000000;2919.00000000000;2853.00000000000;2917.00000000000;2972.00000000000;2902.00000000000;2794.00000000000;2708.00000000000;2662.00000000000;2642.00000000000;2615.00000000000;2595.00000000000;2565.00000000000;2477.00000000000;2325.00000000000;2211.00000000000;2141.00000000000;2019.00000000000;1817.00000000000;1699.00000000000;1656.00000000000;1599.00000000000;1578.00000000000;1596.00000000000;1595.00000000000;1575.00000000000;1587.00000000000;1560.00000000000;1585.00000000000;1610.00000000000;1651.00000000000;1661.00000000000;1641.00000000000;1660.00000000000;1685.00000000000;1704.00000000000;1746.00000000000;1746.00000000000;1734.00000000000;1729.00000000000;1715.00000000000;1808.00000000000;1785.00000000000;1785.00000000000;1800.00000000000;1790.00000000000;1807.00000000000;1782.00000000000;1801.00000000000;1802.00000000000;1800.00000000000;1824.00000000000;1792.00000000000;1779.00000000000
Accel Y : 2114.00000000000;2125.00000000000;2117.00000000000;2143.00000000000;2139.00000000000;2141.00000000000;2140.00000000000;2119.00000000000;2158.00000000000;2167.00000000000;2156.00000000000;2159.00000000000;2146.00000000000;2132.00000000000;2156.00000000000;2120.00000000000;2133.00000000000;2131.00000000000;2123.00000000000;2105.00000000000;2129.00000000000;2124.00000000000;2126.00000000000;2137.00000000000;2145.00000000000;2143.00000000000;2159.00000000000;2177.00000000000;2185.00000000000;2191.00000000000;2172.00000000000;2197.00000000000;2213.00000000000;2217.00000000000;2236.00000000000;2251.00000000000;2262.00000000000;2266.00000000000;2278.00000000000;2259.00000000000;2246.00000000000;2264.00000000000;2319.00000000000;2303.00000000000;2253.00000000000;2298.00000000000;2323.00000000000;2290.00000000000;2280.00000000000;2271.00000000000;2264.00000000000;2220.00000000000;2167.00000000000;2161.00000000000;2146.00000000000;2124.00000000000;2079.00000000000;2033.00000000000;2099.00000000000;2011.00000000000;1966.00000000000;1970.00000000000;1961.00000000000;1895.00000000000;1879.00000000000;1874.00000000000;1819.00000000000;1801.00000000000;1818.00000000000;1818.00000000000;1787.00000000000;1769.00000000000;1778.00000000000;1786.00000000000;1784.00000000000;1724.00000000000;1740.00000000000;1746.00000000000;1743.00000000000;1752.00000000000;1763.00000000000;1765.00000000000;1771.00000000000;1762.00000000000;1760.00000000000;1783.00000000000;1785.00000000000;1781.00000000000;1764.00000000000;1803.00000000000;1845.00000000000;1835.00000000000;1863.00000000000;1876.00000000000;1896.00000000000;1934.00000000000;1951.00000000000;2005.00000000000;2002.00000000000;2021.00000000000;2049.00000000000;2094.00000000000;2124.00000000000;2098.00000000000;2111.00000000000;2159.00000000000;2153.00000000000;2117.00000000000;2188.00000000000;2187.00000000000;2189.00000000000;2177.00000000000;2229.00000000000;2244.00000000000;2232.00000000000;2223.00000000000;2244.00000000000;2239.00000000000;2229.00000000000;2219.00000000000;2201.00000000000;2209.00000000000;2176.00000000000;2135.00000000000;2130.00000000000;2132.00000000000;2119.00000000000;2134.00000000000;2127.00000000000;2122.00000000000;2139.00000000000;2138.00000000000;2152.00000000000;2119.00000000000;2134.00000000000;2113.00000000000;2129.00000000000;2106.00000000000;2099.00000000000;2131.00000000000;2108.00000000000;2099.00000000000;2081.00000000000;2098.00000000000;2089.00000000000;2079.00000000000;2074.00000000000;2059.00000000000;2078.00000000000;2060.00000000000
Accel Z : 2639.00000000000;2650.00000000000;2648.00000000000;2642.00000000000;2661.00000000000;2677.00000000000;2646.00000000000;2655.00000000000;2673.00000000000;2638.00000000000;2648.00000000000;2635.00000000000;2648.00000000000;2679.00000000000;2636.00000000000;2645.00000000000;2635.00000000000;2638.00000000000;2638.00000000000;2620.00000000000;2633.00000000000;2642.00000000000;2626.00000000000;2670.00000000000;2652.00000000000;2664.00000000000;2669.00000000000;2703.00000000000;2706.00000000000;2746.00000000000;2783.00000000000;2804.00000000000;2797.00000000000;2797.00000000000;2797.00000000000;2827.00000000000;2835.00000000000;2825.00000000000;2814.00000000000;2775.00000000000;2739.00000000000;2769.00000000000;2749.00000000000;2665.00000000000;2620.00000000000;2617.00000000000;2551.00000000000;2461.00000000000;2382.00000000000;2374.00000000000;2307.00000000000;2208.00000000000;2112.00000000000;2055.00000000000;2018.00000000000;1931.00000000000;1795.00000000000;1757.00000000000;1704.00000000000;1644.00000000000;1568.00000000000;1530.00000000000;1524.00000000000;1530.00000000000;1541.00000000000;1513.00000000000;1467.00000000000;1481.00000000000;1463.00000000000;1475.00000000000;1482.00000000000;1482.00000000000;1481.00000000000;1508.00000000000;1507.00000000000;1459.00000000000;1508.00000000000;1511.00000000000;1463.00000000000;1472.00000000000;1507.00000000000;1467.00000000000;1400.00000000000;1405.00000000000;1415.00000000000;1433.00000000000;1441.00000000000;1447.00000000000;1444.00000000000;1479.00000000000;1472.00000000000;1465.00000000000;1479.00000000000;1474.00000000000;1494.00000000000;1595.00000000000;1641.00000000000;1681.00000000000;1687.00000000000;1789.00000000000;1875.00000000000;1973.00000000000;1995.00000000000;2072.00000000000;2139.00000000000;2262.00000000000;2302.00000000000;2351.00000000000;2456.00000000000;2520.00000000000;2495.00000000000;2556.00000000000;2582.00000000000;2602.00000000000;2578.00000000000;2602.00000000000;2613.00000000000;2656.00000000000;2693.00000000000;2689.00000000000;2703.00000000000;2690.00000000000;2660.00000000000;2687.00000000000;2701.00000000000;2688.00000000000;2710.00000000000;2702.00000000000;2690.00000000000;2693.00000000000;2695.00000000000;2690.00000000000;2696.00000000000;2707.00000000000;2731.00000000000;2701.00000000000;2674.00000000000;2671.00000000000;2663.00000000000;2659.00000000000;2652.00000000000;2656.00000000000;2645.00000000000;2644.00000000000;2656.00000000000;2661.00000000000;2649.00000000000;2656.00000000000;2697.00000000000;2675.00000000000
Gyro X : 1741.00000000000;1753.00000000000;1727.00000000000;1710.00000000000;1733.00000000000;1731.00000000000;1726.00000000000;1728.00000000000;1725.00000000000;1718.00000000000;1709.00000000000;1749.00000000000;1745.00000000000;1735.00000000000;1705.00000000000;1717.00000000000;1701.00000000000;1701.00000000000;1706.00000000000;1724.00000000000;1725.00000000000;1726.00000000000;1729.00000000000;1713.00000000000;1700.00000000000;1695.00000000000;1670.00000000000;1645.00000000000;1597.00000000000;1599.00000000000;1559.00000000000;1570.00000000000;1526.00000000000;1541.00000000000;1587.00000000000;1632.00000000000;1640.00000000000;1676.00000000000;1801.00000000000;1944.00000000000;2027.00000000000;2030.00000000000;2071.00000000000;2125.00000000000;2201.00000000000;2286.00000000000;2401.00000000000;2449.00000000000;2502.00000000000;2547.00000000000;2568.00000000000;2574.00000000000;2598.00000000000;2646.00000000000;2706.00000000000;2753.00000000000;2807.00000000000;2881.00000000000;2825.00000000000;2844.00000000000;2879.00000000000;2923.00000000000;2903.00000000000;2922.00000000000;2959.00000000000;2927.00000000000;2945.00000000000;2984.00000000000;2991.00000000000;2987.00000000000;2985.00000000000;2947.00000000000;2957.00000000000;2947.00000000000;2888.00000000000;2896.00000000000;2970.00000000000;2958.00000000000;2877.00000000000;2883.00000000000;2930.00000000000;2922.00000000000;2903.00000000000;2993.00000000000;2979.00000000000;2986.00000000000;2989.00000000000;2973.00000000000;2978.00000000000;2994.00000000000;3005.00000000000;3036.00000000000;3052.00000000000;3014.00000000000;2990.00000000000;3027.00000000000;2980.00000000000;2919.00000000000;2853.00000000000;2917.00000000000;2972.00000000000;2902.00000000000;2794.00000000000;2708.00000000000;2662.00000000000;2642.00000000000;2615.00000000000;2595.00000000000;2565.00000000000;2477.00000000000;2325.00000000000;2211.00000000000;2141.00000000000;2019.00000000000;1817.00000000000;1699.00000000000;1656.00000000000;1599.00000000000;1578.00000000000;1596.00000000000;1595.00000000000;1575.00000000000;1587.00000000000;1560.00000000000;1585.00000000000;1610.00000000000;1651.00000000000;1661.00000000000;1641.00000000000;1660.00000000000;1685.00000000000;1704.00000000000;1746.00000000000;1746.00000000000;1734.00000000000;1729.00000000000;1715.00000000000;1808.00000000000;1785.00000000000;1785.00000000000;1800.00000000000;1790.00000000000;1807.00000000000;1782.00000000000;1801.00000000000;1802.00000000000;1800.00000000000;1824.00000000000;1792.00000000000;1779.00000000000
Gyro Y : 2114.00000000000;2125.00000000000;2117.00000000000;2143.00000000000;2139.00000000000;2141.00000000000;2140.00000000000;2119.00000000000;2158.00000000000;2167.00000000000;2156.00000000000;2159.00000000000;2146.00000000000;2132.00000000000;2156.00000000000;2120.00000000000;2133.00000000000;2131.00000000000;2123.00000000000;2105.00000000000;2129.00000000000;2124.00000000000;2126.00000000000;2137.00000000000;2145.00000000000;2143.00000000000;2159.00000000000;2177.00000000000;2185.00000000000;2191.00000000000;2172.00000000000;2197.00000000000;2213.00000000000;2217.00000000000;2236.00000000000;2251.00000000000;2262.00000000000;2266.00000000000;2278.00000000000;2259.00000000000;2246.00000000000;2264.00000000000;2319.00000000000;2303.00000000000;2253.00000000000;2298.00000000000;2323.00000000000;2290.00000000000;2280.00000000000;2271.00000000000;2264.00000000000;2220.00000000000;2167.00000000000;2161.00000000000;2146.00000000000;2124.00000000000;2079.00000000000;2033.00000000000;2099.00000000000;2011.00000000000;1966.00000000000;1970.00000000000;1961.00000000000;1895.00000000000;1879.00000000000;1874.00000000000;1819.00000000000;1801.00000000000;1818.00000000000;1818.00000000000;1787.00000000000;1769.00000000000;1778.00000000000;1786.00000000000;1784.00000000000;1724.00000000000;1740.00000000000;1746.00000000000;1743.00000000000;1752.00000000000;1763.00000000000;1765.00000000000;1771.00000000000;1762.00000000000;1760.00000000000;1783.00000000000;1785.00000000000;1781.00000000000;1764.00000000000;1803.00000000000;1845.00000000000;1835.00000000000;1863.00000000000;1876.00000000000;1896.00000000000;1934.00000000000;1951.00000000000;2005.00000000000;2002.00000000000;2021.00000000000;2049.00000000000;2094.00000000000;2124.00000000000;2098.00000000000;2111.00000000000;2159.00000000000;2153.00000000000;2117.00000000000;2188.00000000000;2187.00000000000;2189.00000000000;2177.00000000000;2229.00000000000;2244.00000000000;2232.00000000000;2223.00000000000;2244.00000000000;2239.00000000000;2229.00000000000;2219.00000000000;2201.00000000000;2209.00000000000;2176.00000000000;2135.00000000000;2130.00000000000;2132.00000000000;2119.00000000000;2134.00000000000;2127.00000000000;2122.00000000000;2139.00000000000;2138.00000000000;2152.00000000000;2119.00000000000;2134.00000000000;2113.00000000000;2129.00000000000;2106.00000000000;2099.00000000000;2131.00000000000;2108.00000000000;2099.00000000000;2081.00000000000;2098.00000000000;2089.00000000000;2079.00000000000;2074.00000000000;2059.00000000000;2078.00000000000;2060.00000000000
Gyro Z : 2639.00000000000;2650.00000000000;2648.00000000000;2642.00000000000;2661.00000000000;2677.00000000000;2646.00000000000;2655.00000000000;2673.00000000000;2638.00000000000;2648.00000000000;2635.00000000000;2648.00000000000;2679.00000000000;2636.00000000000;2645.00000000000;2635.00000000000;2638.00000000000;2638.00000000000;2620.00000000000;2633.00000000000;2642.00000000000;2626.00000000000;2670.00000000000;2652.00000000000;2664.00000000000;2669.00000000000;2703.00000000000;2706.00000000000;2746.00000000000;2783.00000000000;2804.00000000000;2797.00000000000;2797.00000000000;2797.00000000000;2827.00000000000;2835.00000000000;2825.00000000000;2814.00000000000;2775.00000000000;2739.00000000000;2769.00000000000;2749.00000000000;2665.00000000000;2620.00000000000;2617.00000000000;2551.00000000000;2461.00000000000;2382.00000000000;2374.00000000000;2307.00000000000;2208.00000000000;2112.00000000000;2055.00000000000;2018.00000000000;1931.00000000000;1795.00000000000;1757.00000000000;1704.00000000000;1644.00000000000;1568.00000000000;1530.00000000000;1524.00000000000;1530.00000000000;1541.00000000000;1513.00000000000;1467.00000000000;1481.00000000000;1463.00000000000;1475.00000000000;1482.00000000000;1482.00000000000;1481.00000000000;1508.00000000000;1507.00000000000;1459.00000000000;1508.00000000000;1511.00000000000;1463.00000000000;1472.00000000000;1507.00000000000;1467.00000000000;1400.00000000000;1405.00000000000;1415.00000000000;1433.00000000000;1441.00000000000;1447.00000000000;1444.00000000000;1479.00000000000;1472.00000000000;1465.00000000000;1479.00000000000;1474.00000000000;1494.00000000000;1595.00000000000;1641.00000000000;1681.00000000000;1687.00000000000;1789.00000000000;1875.00000000000;1973.00000000000;1995.00000000000;2072.00000000000;2139.00000000000;2262.00000000000;2302.00000000000;2351.00000000000;2456.00000000000;2520.00000000000;2495.00000000000;2556.00000000000;2582.00000000000;2602.00000000000;2578.00000000000;2602.00000000000;2613.00000000000;2656.00000000000;2693.00000000000;2689.00000000000;2703.00000000000;2690.00000000000;2660.00000000000;2687.00000000000;2701.00000000000;2688.00000000000;2710.00000000000;2702.00000000000;2690.00000000000;2693.00000000000;2695.00000000000;2690.00000000000;2696.00000000000;2707.00000000000;2731.00000000000;2701.00000000000;2674.00000000000;2671.00000000000;2663.00000000000;2659.00000000000;2652.00000000000;2656.00000000000;2645.00000000000;2644.00000000000;2656.00000000000;2661.00000000000;2649.00000000000;2656.00000000000;2697.00000000000;2675.00000000000
