COMMAND 1 SAMPLE 1
Accel X : 1835.00000000000;1854.00000000000;1906.00000000000;1925.00000000000;1918.00000000000;1928.00000000000;1932.00000000000;1969.00000000000;1996.00000000000;1991.00000000000;2008.00000000000;2031.00000000000;2039.00000000000;2033.00000000000;2066.00000000000;2047.00000000000;2063.00000000000;2021.00000000000;2076.00000000000;2071.00000000000;2042.00000000000;2016.00000000000;2020.00000000000;2021.00000000000;2033.00000000000;1949.00000000000;1872.00000000000;1900.00000000000;1882.00000000000;1818.00000000000;1776.00000000000;1776.00000000000;1770.00000000000;1736.00000000000;1681.00000000000;1696.00000000000;1705.00000000000;1683.00000000000;1719.00000000000;1738.00000000000;1717.00000000000;1738.00000000000;1747.00000000000;1810.00000000000;1813.00000000000;1783.00000000000;1784.00000000000;1806.00000000000;1876.00000000000;1947.00000000000;2034.00000000000;1986.00000000000;2026.00000000000;2094.00000000000;2151.00000000000;2301.00000000000;2249.00000000000;2143.00000000000;2204.00000000000;2229.00000000000;2221.00000000000;2173.00000000000;2137.00000000000;2128.00000000000;2083.00000000000;2102.00000000000;2028.00000000000;1995.00000000000;1929.00000000000;1830.00000000000;1726.00000000000;1651.00000000000;1551.00000000000;1495.00000000000;1378.00000000000;1270.00000000000;1184.00000000000;1170.00000000000;1114.00000000000;945.000000000000;827.000000000000;879.000000000000;804.000000000000;633.000000000000;641.000000000000;788.000000000000;926.000000000000;1119.00000000000;1341.00000000000;1533.00000000000;1703.00000000000;2034.00000000000;2269.00000000000;2423.00000000000;2411.00000000000;2599.00000000000;3281.00000000000;3404.00000000000;3057.00000000000;2920.00000000000;2970.00000000000;2986.00000000000;3080.00000000000;3148.00000000000;3079.00000000000;2978.00000000000;2883.00000000000;2847.00000000000;2931.00000000000;3013.00000000000;2881.00000000000;2658.00000000000;2524.00000000000;2495.00000000000;2543.00000000000;2534.00000000000;2487.00000000000;2440.00000000000;2362.00000000000;2291.00000000000;2189.00000000000;2165.00000000000;2218.00000000000;2243.00000000000;2235.00000000000;2227.00000000000;2173.00000000000;2091.00000000000;2165.00000000000;2228.00000000000;2182.00000000000;2127.00000000000;2144.00000000000;2098.00000000000;2021.00000000000;2074.00000000000;2138.00000000000;2085.00000000000;2032.00000000000;2037.00000000000;2006.00000000000;1990.00000000000;2039.00000000000;2027.00000000000;2072.00000000000;2078.00000000000;2046.00000000000;1995.00000000000;2014.00000000000;2021.00000000000
Accel Y : 2118.00000000000;2130.00000000000;2124.00000000000;2113.00000000000;2134.00000000000;2127.00000000000;2133.00000000000;2139.00000000000;2133.00000000000;2123.00000000000;2159.00000000000;2133.00000000000;2122.00000000000;2132.00000000000;2142.00000000000;2122.00000000000;2141.00000000000;2111.00000000000;2120.00000000000;2134.00000000000;2144.00000000000;2129.00000000000;2136.00000000000;2136.00000000000;2160.00000000000;2152.00000000000;2168.00000000000;2140.00000000000;2147.00000000000;2169.00000000000;2147.00000000000;2144.00000000000;2159.00000000000;2150.00000000000;2136.00000000000;2120.00000000000;2146.00000000000;2134.00000000000;2134.00000000000;2151.00000000000;2137.00000000000;2138.00000000000;2163.00000000000;2180.00000000000;2187.00000000000;2159.00000000000;2182.00000000000;2231.00000000000;2189.00000000000;2151.00000000000;2159.00000000000;2171.00000000000;2088.00000000000;2052.00000000000;2032.00000000000;1971.00000000000;1921.00000000000;1799.00000000000;1812.00000000000;1747.00000000000;1587.00000000000;1532.00000000000;1497.00000000000;1475.00000000000;1390.00000000000;1355.00000000000;1341.00000000000;1307.00000000000;1291.00000000000;1322.00000000000;1352.00000000000;1341.00000000000;1319.00000000000;1356.00000000000;1299.00000000000;1315.00000000000;1298.00000000000;1282.00000000000;1299.00000000000;1308.00000000000;1255.00000000000;1256.00000000000;1314.00000000000;1272.00000000000;1316.00000000000;1312.00000000000;1343.00000000000;1435.00000000000;1449.00000000000;1542.00000000000;1704.00000000000;1859.00000000000;1899.00000000000;1852.00000000000;2055.00000000000;2315.00000000000;2448.00000000000;2251.00000000000;2218.00000000000;2244.00000000000;2176.00000000000;2038.00000000000;1983.00000000000;1943.00000000000;1964.00000000000;1982.00000000000;1994.00000000000;1990.00000000000;1979.00000000000;1997.00000000000;2003.00000000000;2033.00000000000;2051.00000000000;2073.00000000000;2036.00000000000;2019.00000000000;2040.00000000000;2057.00000000000;2041.00000000000;2046.00000000000;2076.00000000000;2045.00000000000;2037.00000000000;2070.00000000000;2040.00000000000;2048.00000000000;2053.00000000000;2072.00000000000;2052.00000000000;2054.00000000000;2069.00000000000;2070.00000000000;2079.00000000000;2081.00000000000;2055.00000000000;2073.00000000000;2065.00000000000;2068.00000000000;2077.00000000000;2060.00000000000;2062.00000000000;2055.00000000000;2068.00000000000;2054.00000000000;2057.00000000000;2064.00000000000;2079.00000000000;2079.00000000000;2069.00000000000;2072.00000000000
Accel Z : 2677.00000000000;2662.00000000000;2675.00000000000;2662.00000000000;2669.00000000000;2672.00000000000;2701.00000000000;2712.00000000000;2701.00000000000;2700.00000000000;2716.00000000000;2729.00000000000;2726.00000000000;2714.00000000000;2699.00000000000;2688.00000000000;2679.00000000000;2660.00000000000;2658.00000000000;2673.00000000000;2671.00000000000;2670.00000000000;2669.00000000000;2669.00000000000;2671.00000000000;2670.00000000000;2639.00000000000;2659.00000000000;2618.00000000000;2635.00000000000;2661.00000000000;2629.00000000000;2659.00000000000;2666.00000000000;2656.00000000000;2650.00000000000;2667.00000000000;2680.00000000000;2695.00000000000;2687.00000000000;2649.00000000000;2690.00000000000;2680.00000000000;2719.00000000000;2739.00000000000;2753.00000000000;2799.00000000000;2831.00000000000;2810.00000000000;2844.00000000000;2894.00000000000;2842.00000000000;2773.00000000000;2817.00000000000;2801.00000000000;2811.00000000000;2722.00000000000;2647.00000000000;2667.00000000000;2587.00000000000;2502.00000000000;2436.00000000000;2392.00000000000;2328.00000000000;2273.00000000000;2227.00000000000;2171.00000000000;2138.00000000000;2105.00000000000;2059.00000000000;1991.00000000000;1942.00000000000;1890.00000000000;1859.00000000000;1795.00000000000;1728.00000000000;1698.00000000000;1748.00000000000;1740.00000000000;1707.00000000000;1728.00000000000;1789.00000000000;1800.00000000000;1771.00000000000;1710.00000000000;1752.00000000000;1745.00000000000;1752.00000000000;1725.00000000000;1755.00000000000;1779.00000000000;1773.00000000000;1715.00000000000;1626.00000000000;1645.00000000000;1813.00000000000;1998.00000000000;1930.00000000000;2033.00000000000;2236.00000000000;2280.00000000000;2298.00000000000;2420.00000000000;2449.00000000000;2507.00000000000;2525.00000000000;2543.00000000000;2523.00000000000;2545.00000000000;2537.00000000000;2554.00000000000;2517.00000000000;2505.00000000000;2472.00000000000;2494.00000000000;2493.00000000000;2524.00000000000;2523.00000000000;2519.00000000000;2521.00000000000;2562.00000000000;2572.00000000000;2618.00000000000;2611.00000000000;2590.00000000000;2625.00000000000;2636.00000000000;2611.00000000000;2658.00000000000;2674.00000000000;2678.00000000000;2665.00000000000;2677.00000000000;2639.00000000000;2611.00000000000;2645.00000000000;2681.00000000000;2639.00000000000;2642.00000000000;2641.00000000000;2668.00000000000;2645.00000000000;2643.00000000000;2644.00000000000;2659.00000000000;2681.00000000000;2676.00000000000;2638.00000000000;2648.00000000000;2671.00000000000
Gyro X : 1835.00000000000;1854.00000000000;1906.00000000000;1925.00000000000;1918.00000000000;1928.00000000000;1932.00000000000;1969.00000000000;1996.00000000000;1991.00000000000;2008.00000000000;2031.00000000000;2039.00000000000;2033.00000000000;2066.00000000000;2047.00000000000;2063.00000000000;2021.00000000000;2076.00000000000;2071.00000000000;2042.00000000000;2016.00000000000;2020.00000000000;2021.00000000000;2033.00000000000;1949.00000000000;1872.00000000000;1900.00000000000;1882.00000000000;1818.00000000000;1776.00000000000;1776.00000000000;1770.00000000000;1736.00000000000;1681.00000000000;1696.00000000000;1705.00000000000;1683.00000000000;1719.00000000000;1738.00000000000;1717.00000000000;1738.00000000000;1747.00000000000;1810.00000000000;1813.00000000000;1783.00000000000;1784.00000000000;1806.00000000000;1876.00000000000;1947.00000000000;2034.00000000000;1986.00000000000;2026.00000000000;2094.00000000000;2151.00000000000;2301.00000000000;2249.00000000000;2143.00000000000;2204.00000000000;2229.00000000000;2221.00000000000;2173.00000000000;2137.00000000000;2128.00000000000;2083.00000000000;2102.00000000000;2028.00000000000;1995.00000000000;1929.00000000000;1830.00000000000;1726.00000000000;1651.00000000000;1551.00000000000;1495.00000000000;1378.00000000000;1270.00000000000;1184.00000000000;1170.00000000000;1114.00000000000;945.000000000000;827.000000000000;879.000000000000;804.000000000000;633.000000000000;641.000000000000;788.000000000000;926.000000000000;1119.00000000000;1341.00000000000;1533.00000000000;1703.00000000000;2034.00000000000;2269.00000000000;2423.00000000000;2411.00000000000;2599.00000000000;3281.00000000000;3404.00000000000;3057.00000000000;2920.00000000000;2970.00000000000;2986.00000000000;3080.00000000000;3148.00000000000;3079.00000000000;2978.00000000000;2883.00000000000;2847.00000000000;2931.00000000000;3013.00000000000;2881.00000000000;2658.00000000000;2524.00000000000;2495.00000000000;2543.00000000000;2534.00000000000;2487.00000000000;2440.00000000000;2362.00000000000;2291.00000000000;2189.00000000000;2165.00000000000;2218.00000000000;2243.00000000000;2235.00000000000;2227.00000000000;2173.00000000000;2091.00000000000;2165.00000000000;2228.00000000000;2182.00000000000;2127.00000000000;2144.00000000000;2098.00000000000;2021.00000000000;2074.00000000000;2138.00000000000;2085.00000000000;2032.00000000000;2037.00000000000;2006.00000000000;1990.00000000000;2039.00000000000;2027.00000000000;2072.00000000000;2078.00000000000;2046.00000000000;1995.00000000000;2014.00000000000;2021.00000000000
Gyro Y : 2118.00000000000;2130.00000000000;2124.00000000000;2113.00000000000;2134.00000000000;2127.00000000000;2133.00000000000;2139.00000000000;2133.00000000000;2123.00000000000;2159.00000000000;2133.00000000000;2122.00000000000;2132.00000000000;2142.00000000000;2122.00000000000;2141.00000000000;2111.00000000000;2120.00000000000;2134.00000000000;2144.00000000000;2129.00000000000;2136.00000000000;2136.00000000000;2160.00000000000;2152.00000000000;2168.00000000000;2140.00000000000;2147.00000000000;2169.00000000000;2147.00000000000;2144.00000000000;2159.00000000000;2150.00000000000;2136.00000000000;2120.00000000000;2146.00000000000;2134.00000000000;2134.00000000000;2151.00000000000;2137.00000000000;2138.00000000000;2163.00000000000;2180.00000000000;2187.00000000000;2159.00000000000;2182.00000000000;2231.00000000000;2189.00000000000;2151.00000000000;2159.00000000000;2171.00000000000;2088.00000000000;2052.00000000000;2032.00000000000;1971.00000000000;1921.00000000000;1799.00000000000;1812.00000000000;1747.00000000000;1587.00000000000;1532.00000000000;1497.00000000000;1475.00000000000;1390.00000000000;1355.00000000000;1341.00000000000;1307.00000000000;1291.00000000000;1322.00000000000;1352.00000000000;1341.00000000000;1319.00000000000;1356.00000000000;1299.00000000000;1315.00000000000;1298.00000000000;1282.00000000000;1299.00000000000;1308.00000000000;1255.00000000000;1256.00000000000;1314.00000000000;1272.00000000000;1316.00000000000;1312.00000000000;1343.00000000000;1435.00000000000;1449.00000000000;1542.00000000000;1704.00000000000;1859.00000000000;1899.00000000000;1852.00000000000;2055.00000000000;2315.00000000000;2448.00000000000;2251.00000000000;2218.00000000000;2244.00000000000;2176.00000000000;2038.00000000000;1983.00000000000;1943.00000000000;1964.00000000000;1982.00000000000;1994.00000000000;1990.00000000000;1979.00000000000;1997.00000000000;2003.00000000000;2033.00000000000;2051.00000000000;2073.00000000000;2036.00000000000;2019.00000000000;2040.00000000000;2057.00000000000;2041.00000000000;2046.00000000000;2076.00000000000;2045.00000000000;2037.00000000000;2070.00000000000;2040.00000000000;2048.00000000000;2053.00000000000;2072.00000000000;2052.00000000000;2054.00000000000;2069.00000000000;2070.00000000000;2079.00000000000;2081.00000000000;2055.00000000000;2073.00000000000;2065.00000000000;2068.00000000000;2077.00000000000;2060.00000000000;2062.00000000000;2055.00000000000;2068.00000000000;2054.00000000000;2057.00000000000;2064.00000000000;2079.00000000000;2079.00000000000;2069.00000000000;2072.00000000000
Gyro Z : 2677.00000000000;2662.00000000000;2675.00000000000;2662.00000000000;2669.00000000000;2672.00000000000;2701.00000000000;2712.00000000000;2701.00000000000;2700.00000000000;2716.00000000000;2729.00000000000;2726.00000000000;2714.00000000000;2699.00000000000;2688.00000000000;2679.00000000000;2660.00000000000;2658.00000000000;2673.00000000000;2671.00000000000;2670.00000000000;2669.00000000000;2669.00000000000;2671.00000000000;2670.00000000000;2639.00000000000;2659.00000000000;2618.00000000000;2635.00000000000;2661.00000000000;2629.00000000000;2659.00000000000;2666.00000000000;2656.00000000000;2650.00000000000;2667.00000000000;2680.00000000000;2695.00000000000;2687.00000000000;2649.00000000000;2690.00000000000;2680.00000000000;2719.00000000000;2739.00000000000;2753.00000000000;2799.00000000000;2831.00000000000;2810.00000000000;2844.00000000000;2894.00000000000;2842.00000000000;2773.00000000000;2817.00000000000;2801.00000000000;2811.00000000000;2722.00000000000;2647.00000000000;2667.00000000000;2587.00000000000;2502.00000000000;2436.00000000000;2392.00000000000;2328.00000000000;2273.00000000000;2227.00000000000;2171.00000000000;2138.00000000000;2105.00000000000;2059.00000000000;1991.00000000000;1942.00000000000;1890.00000000000;1859.00000000000;1795.00000000000;1728.00000000000;1698.00000000000;1748.00000000000;1740.00000000000;1707.00000000000;1728.00000000000;1789.00000000000;1800.00000000000;1771.00000000000;1710.00000000000;1752.00000000000;1745.00000000000;1752.00000000000;1725.00000000000;1755.00000000000;1779.00000000000;1773.00000000000;1715.00000000000;1626.00000000000;1645.00000000000;1813.00000000000;1998.00000000000;1930.00000000000;2033.00000000000;2236.00000000000;2280.00000000000;2298.00000000000;2420.00000000000;2449.00000000000;2507.00000000000;2525.00000000000;2543.00000000000;2523.00000000000;2545.00000000000;2537.00000000000;2554.00000000000;2517.00000000000;2505.00000000000;2472.00000000000;2494.00000000000;2493.00000000000;2524.00000000000;2523.00000000000;2519.00000000000;2521.00000000000;2562.00000000000;2572.00000000000;2618.00000000000;2611.00000000000;2590.00000000000;2625.00000000000;2636.00000000000;2611.00000000000;2658.00000000000;2674.00000000000;2678.00000000000;2665.00000000000;2677.00000000000;2639.00000000000;2611.00000000000;2645.00000000000;2681.00000000000;2639.00000000000;2642.00000000000;2641.00000000000;2668.00000000000;2645.00000000000;2643.00000000000;2644.00000000000;2659.00000000000;2681.00000000000;2676.00000000000;2638.00000000000;2648.00000000000;2671.00000000000
