COMMAND 3 SAMPLE 1
Accel X : 1795.00000000000;1803.00000000000;1807.00000000000;1810.00000000000;1807.00000000000;1777.00000000000;1785.00000000000;1821.00000000000;1798.00000000000;1787.00000000000;1784.00000000000;1787.00000000000;1727.00000000000;1684.00000000000;1556.00000000000;1624.00000000000;1913.00000000000;2191.00000000000;2419.00000000000;2801.00000000000;3166.00000000000;3317.00000000000;3344.00000000000;3421.00000000000;3503.00000000000;3494.00000000000;3510.00000000000;3380.00000000000;3290.00000000000;3247.00000000000;3126.00000000000;3147.00000000000;3001.00000000000;2923.00000000000;2862.00000000000;2763.00000000000;2695.00000000000;2558.00000000000;2518.00000000000;2398.00000000000;2343.00000000000;2292.00000000000;2206.00000000000;2175.00000000000;2090.00000000000;2038.00000000000;1966.00000000000;1942.00000000000;1887.00000000000;1866.00000000000;1824.00000000000;1808.00000000000;1751.00000000000;1719.00000000000;1689.00000000000;1669.00000000000;1660.00000000000;1656.00000000000;1595.00000000000;1630.00000000000;1632.00000000000;1625.00000000000;1664.00000000000;1677.00000000000;1668.00000000000;1708.00000000000;1735.00000000000;1767.00000000000;1820.00000000000;1825.00000000000;1844.00000000000;1858.00000000000;1848.00000000000;1884.00000000000;1848.00000000000;1796.00000000000;1795.00000000000;1756.00000000000;1708.00000000000;1662.00000000000;1576.00000000000;1601.00000000000;1648.00000000000;1566.00000000000;1417.00000000000;1598.00000000000;1642.00000000000;1744.00000000000;1633.00000000000;1544.00000000000;1698.00000000000;1891.00000000000;2051.00000000000;1944.00000000000;1935.00000000000;1980.00000000000;2059.00000000000;2101.00000000000;2082.00000000000;1936.00000000000;1909.00000000000;1979.00000000000;2043.00000000000;2018.00000000000;1935.00000000000;1905.00000000000;1984.00000000000;1998.00000000000;1927.00000000000;1960.00000000000;1965.00000000000;1959.00000000000;1941.00000000000;1909.00000000000;1932.00000000000;1933.00000000000;1879.00000000000;1901.00000000000;1922.00000000000;1872.00000000000;1836.00000000000;1835.00000000000;1863.00000000000;1876.00000000000;1918.00000000000;1908.00000000000;1870.00000000000;1831.00000000000;1835.00000000000;1897.00000000000;1861.00000000000;1858.00000000000;1874.00000000000;1879.00000000000;1849.00000000000;1853.00000000000;1883.00000000000;1880.00000000000;1858.00000000000;1860.00000000000;1837.00000000000;1859.00000000000;1853.00000000000;1834.00000000000;1838.00000000000;1846.00000000000;1840.00000000000;1834.00000000000;1825.00000000000;1826.00000000000
Accel Y : 2075.00000000000;2085.00000000000;2083.00000000000;2069.00000000000;2077.00000000000;2064.00000000000;2068.00000000000;2071.00000000000;2085.00000000000;2080.00000000000;2081.00000000000;2049.00000000000;2067.00000000000;2081.00000000000;2038.00000000000;2093.00000000000;2127.00000000000;2110.00000000000;2083.00000000000;2012.00000000000;1949.00000000000;1822.00000000000;1795.00000000000;1776.00000000000;1654.00000000000;1625.00000000000;1658.00000000000;1657.00000000000;1599.00000000000;1568.00000000000;1538.00000000000;1463.00000000000;1473.00000000000;1468.00000000000;1459.00000000000;1464.00000000000;1478.00000000000;1454.00000000000;1492.00000000000;1481.00000000000;1479.00000000000;1411.00000000000;1433.00000000000;1413.00000000000;1407.00000000000;1357.00000000000;1362.00000000000;1367.00000000000;1422.00000000000;1379.00000000000;1394.00000000000;1405.00000000000;1408.00000000000;1395.00000000000;1367.00000000000;1337.00000000000;1341.00000000000;1309.00000000000;1304.00000000000;1259.00000000000;1233.00000000000;1215.00000000000;1218.00000000000;1191.00000000000;1180.00000000000;1150.00000000000;1156.00000000000;1147.00000000000;1099.00000000000;1120.00000000000;1128.00000000000;1102.00000000000;1103.00000000000;1103.00000000000;1104.00000000000;1140.00000000000;1109.00000000000;1126.00000000000;1137.00000000000;1188.00000000000;1239.00000000000;1258.00000000000;1264.00000000000;1283.00000000000;1288.00000000000;1327.00000000000;1352.00000000000;1319.00000000000;1173.00000000000;1226.00000000000;1375.00000000000;1319.00000000000;1321.00000000000;1285.00000000000;1322.00000000000;1363.00000000000;1470.00000000000;1472.00000000000;1468.00000000000;1491.00000000000;1592.00000000000;1717.00000000000;1712.00000000000;1740.00000000000;1801.00000000000;1847.00000000000;1931.00000000000;1987.00000000000;1986.00000000000;1977.00000000000;2021.00000000000;2044.00000000000;2071.00000000000;2091.00000000000;2095.00000000000;2079.00000000000;2128.00000000000;2144.00000000000;2133.00000000000;2157.00000000000;2152.00000000000;2157.00000000000;2169.00000000000;2169.00000000000;2150.00000000000;2163.00000000000;2159.00000000000;2156.00000000000;2161.00000000000;2159.00000000000;2156.00000000000;2131.00000000000;2153.00000000000;2141.00000000000;2160.00000000000;2130.00000000000;2137.00000000000;2125.00000000000;2118.00000000000;2132.00000000000;2111.00000000000;2125.00000000000;2116.00000000000;2122.00000000000;2124.00000000000;2144.00000000000;2128.00000000000;2140.00000000000;2131.00000000000;2128.00000000000
Accel Z : 2639.00000000000;2656.00000000000;2651.00000000000;2644.00000000000;2643.00000000000;2645.00000000000;2631.00000000000;2668.00000000000;2639.00000000000;2666.00000000000;2623.00000000000;2627.00000000000;2577.00000000000;2547.00000000000;2539.00000000000;2503.00000000000;2433.00000000000;2415.00000000000;2311.00000000000;2207.00000000000;2068.00000000000;2006.00000000000;1855.00000000000;1753.00000000000;1651.00000000000;1593.00000000000;1549.00000000000;1492.00000000000;1359.00000000000;1322.00000000000;1302.00000000000;1291.00000000000;1248.00000000000;1224.00000000000;1239.00000000000;1242.00000000000;1240.00000000000;1287.00000000000;1329.00000000000;1366.00000000000;1437.00000000000;1465.00000000000;1495.00000000000;1573.00000000000;1612.00000000000;1654.00000000000;1682.00000000000;1746.00000000000;1810.00000000000;1851.00000000000;1867.00000000000;1880.00000000000;1897.00000000000;1926.00000000000;1983.00000000000;1972.00000000000;1992.00000000000;1961.00000000000;1992.00000000000;2019.00000000000;1999.00000000000;2049.00000000000;2032.00000000000;2011.00000000000;2017.00000000000;2001.00000000000;1987.00000000000;1967.00000000000;1952.00000000000;1953.00000000000;1942.00000000000;1928.00000000000;1915.00000000000;1917.00000000000;1910.00000000000;1891.00000000000;1879.00000000000;1921.00000000000;1913.00000000000;1911.00000000000;1909.00000000000;1913.00000000000;1917.00000000000;1894.00000000000;1821.00000000000;1858.00000000000;1885.00000000000;1867.00000000000;1732.00000000000;1744.00000000000;1870.00000000000;1898.00000000000;1949.00000000000;1910.00000000000;1933.00000000000;1975.00000000000;2196.00000000000;2245.00000000000;2165.00000000000;2127.00000000000;2377.00000000000;2567.00000000000;2619.00000000000;2641.00000000000;2600.00000000000;2701.00000000000;2839.00000000000;2816.00000000000;2793.00000000000;2819.00000000000;2871.00000000000;2820.00000000000;2815.00000000000;2853.00000000000;2885.00000000000;2891.00000000000;2921.00000000000;2918.00000000000;2907.00000000000;2903.00000000000;2872.00000000000;2864.00000000000;2882.00000000000;2891.00000000000;2888.00000000000;2899.00000000000;2877.00000000000;2850.00000000000;2817.00000000000;2755.00000000000;2759.00000000000;2743.00000000000;2690.00000000000;2687.00000000000;2659.00000000000;2676.00000000000;2673.00000000000;2676.00000000000;2635.00000000000;2676.00000000000;2652.00000000000;2643.00000000000;2636.00000000000;2661.00000000000;2651.00000000000;2687.00000000000;2665.00000000000;2696.00000000000;2675.00000000000;2682.00000000000
Gyro X : 1795.00000000000;1803.00000000000;1807.00000000000;1810.00000000000;1807.00000000000;1777.00000000000;1785.00000000000;1821.00000000000;1798.00000000000;1787.00000000000;1784.00000000000;1787.00000000000;1727.00000000000;1684.00000000000;1556.00000000000;1624.00000000000;1913.00000000000;2191.00000000000;2419.00000000000;2801.00000000000;3166.00000000000;3317.00000000000;3344.00000000000;3421.00000000000;3503.00000000000;3494.00000000000;3510.00000000000;3380.00000000000;3290.00000000000;3247.00000000000;3126.00000000000;3147.00000000000;3001.00000000000;2923.00000000000;2862.00000000000;2763.00000000000;2695.00000000000;2558.00000000000;2518.00000000000;2398.00000000000;2343.00000000000;2292.00000000000;2206.00000000000;2175.00000000000;2090.00000000000;2038.00000000000;1966.00000000000;1942.00000000000;1887.00000000000;1866.00000000000;1824.00000000000;1808.00000000000;1751.00000000000;1719.00000000000;1689.00000000000;1669.00000000000;1660.00000000000;1656.00000000000;1595.00000000000;1630.00000000000;1632.00000000000;1625.00000000000;1664.00000000000;1677.00000000000;1668.00000000000;1708.00000000000;1735.00000000000;1767.00000000000;1820.00000000000;1825.00000000000;1844.00000000000;1858.00000000000;1848.00000000000;1884.00000000000;1848.00000000000;1796.00000000000;1795.00000000000;1756.00000000000;1708.00000000000;1662.00000000000;1576.00000000000;1601.00000000000;1648.00000000000;1566.00000000000;1417.00000000000;1598.00000000000;1642.00000000000;1744.00000000000;1633.00000000000;1544.00000000000;1698.00000000000;1891.00000000000;2051.00000000000;1944.00000000000;1935.00000000000;1980.00000000000;2059.00000000000;2101.00000000000;2082.00000000000;1936.00000000000;1909.00000000000;1979.00000000000;2043.00000000000;2018.00000000000;1935.00000000000;1905.00000000000;1984.00000000000;1998.00000000000;1927.00000000000;1960.00000000000;1965.00000000000;1959.00000000000;1941.00000000000;1909.00000000000;1932.00000000000;1933.00000000000;1879.00000000000;1901.00000000000;1922.00000000000;1872.00000000000;1836.00000000000;1835.00000000000;1863.00000000000;1876.00000000000;1918.00000000000;1908.00000000000;1870.00000000000;1831.00000000000;1835.00000000000;1897.00000000000;1861.00000000000;1858.00000000000;1874.00000000000;1879.00000000000;1849.00000000000;1853.00000000000;1883.00000000000;1880.00000000000;1858.00000000000;1860.00000000000;1837.00000000000;1859.00000000000;1853.00000000000;1834.00000000000;1838.00000000000;1846.00000000000;1840.00000000000;1834.00000000000;1825.00000000000;1826.00000000000
Gyro Y : 2075.00000000000;2085.00000000000;2083.00000000000;2069.00000000000;2077.00000000000;2064.00000000000;2068.00000000000;2071.00000000000;2085.00000000000;2080.00000000000;2081.00000000000;2049.00000000000;2067.00000000000;2081.00000000000;2038.00000000000;2093.00000000000;2127.00000000000;2110.00000000000;2083.00000000000;2012.00000000000;1949.00000000000;1822.00000000000;1795.00000000000;1776.00000000000;1654.00000000000;1625.00000000000;1658.00000000000;1657.00000000000;1599.00000000000;1568.00000000000;1538.00000000000;1463.00000000000;1473.00000000000;1468.00000000000;1459.00000000000;1464.00000000000;1478.00000000000;1454.00000000000;1492.00000000000;1481.00000000000;1479.00000000000;1411.00000000000;1433.00000000000;1413.00000000000;1407.00000000000;1357.00000000000;1362.00000000000;1367.00000000000;1422.00000000000;1379.00000000000;1394.00000000000;1405.00000000000;1408.00000000000;1395.00000000000;1367.00000000000;1337.00000000000;1341.00000000000;1309.00000000000;1304.00000000000;1259.00000000000;1233.00000000000;1215.00000000000;1218.00000000000;1191.00000000000;1180.00000000000;1150.00000000000;1156.00000000000;1147.00000000000;1099.00000000000;1120.00000000000;1128.00000000000;1102.00000000000;1103.00000000000;1103.00000000000;1104.00000000000;1140.00000000000;1109.00000000000;1126.00000000000;1137.00000000000;1188.00000000000;1239.00000000000;1258.00000000000;1264.00000000000;1283.00000000000;1288.00000000000;1327.00000000000;1352.00000000000;1319.00000000000;1173.00000000000;1226.00000000000;1375.00000000000;1319.00000000000;1321.00000000000;1285.00000000000;1322.00000000000;1363.00000000000;1470.00000000000;1472.00000000000;1468.00000000000;1491.00000000000;1592.00000000000;1717.00000000000;1712.00000000000;1740.00000000000;1801.00000000000;1847.00000000000;1931.00000000000;1987.00000000000;1986.00000000000;1977.00000000000;2021.00000000000;2044.00000000000;2071.00000000000;2091.00000000000;2095.00000000000;2079.00000000000;2128.00000000000;2144.00000000000;2133.00000000000;2157.00000000000;2152.00000000000;2157.00000000000;2169.00000000000;2169.00000000000;2150.00000000000;2163.00000000000;2159.00000000000;2156.00000000000;2161.00000000000;2159.00000000000;2156.00000000000;2131.00000000000;2153.00000000000;2141.00000000000;2160.00000000000;2130.00000000000;2137.00000000000;2125.00000000000;2118.00000000000;2132.00000000000;2111.00000000000;2125.00000000000;2116.00000000000;2122.00000000000;2124.00000000000;2144.00000000000;2128.00000000000;2140.00000000000;2131.00000000000;2128.00000000000
Gyro Z : 2639.00000000000;2656.00000000000;2651.00000000000;2644.00000000000;2643.00000000000;2645.00000000000;2631.00000000000;2668.00000000000;2639.00000000000;2666.00000000000;2623.00000000000;2627.00000000000;2577.00000000000;2547.00000000000;2539.00000000000;2503.00000000000;2433.00000000000;2415.00000000000;2311.00000000000;2207.00000000000;2068.00000000000;2006.00000000000;1855.00000000000;1753.00000000000;1651.00000000000;1593.00000000000;1549.00000000000;1492.00000000000;1359.00000000000;1322.00000000000;1302.00000000000;1291.00000000000;1248.00000000000;1224.00000000000;1239.00000000000;1242.00000000000;1240.00000000000;1287.00000000000;1329.00000000000;1366.00000000000;1437.00000000000;1465.00000000000;1495.00000000000;1573.00000000000;1612.00000000000;1654.00000000000;1682.00000000000;1746.00000000000;1810.00000000000;1851.00000000000;1867.00000000000;1880.00000000000;1897.00000000000;1926.00000000000;1983.00000000000;1972.00000000000;1992.00000000000;1961.00000000000;1992.00000000000;2019.00000000000;1999.00000000000;2049.00000000000;2032.00000000000;2011.00000000000;2017.00000000000;2001.00000000000;1987.00000000000;1967.00000000000;1952.00000000000;1953.00000000000;1942.00000000000;1928.00000000000;1915.00000000000;1917.00000000000;1910.00000000000;1891.00000000000;1879.00000000000;1921.00000000000;1913.00000000000;1911.00000000000;1909.00000000000;1913.00000000000;1917.00000000000;1894.00000000000;1821.00000000000;1858.00000000000;1885.00000000000;1867.00000000000;1732.00000000000;1744.00000000000;1870.00000000000;1898.00000000000;1949.00000000000;1910.00000000000;1933.00000000000;1975.00000000000;2196.00000000000;2245.00000000000;2165.00000000000;2127.00000000000;2377.00000000000;2567.00000000000;2619.00000000000;2641.00000000000;2600.00000000000;2701.00000000000;2839.00000000000;2816.00000000000;2793.00000000000;2819.00000000000;2871.00000000000;2820.00000000000;2815.00000000000;2853.00000000000;2885.00000000000;2891.00000000000;2921.00000000000;2918.00000000000;2907.00000000000;2903.00000000000;2872.00000000000;2864.00000000000;2882.00000000000;2891.00000000000;2888.00000000000;2899.00000000000;2877.00000000000;2850.00000000000;2817.00000000000;2755.00000000000;2759.00000000000;2743.00000000000;2690.00000000000;2687.00000000000;2659.00000000000;2676.00000000000;2673.00000000000;2676.00000000000;2635.00000000000;2676.00000000000;2652.00000000000;2643.00000000000;2636.00000000000;2661.00000000000;2651.00000000000;2687.00000000000;2665.00000000000;2696.00000000000;2675.00000000000;2682.00000000000
