COMMAND 2 SAMPLE 1
Accel X : 1815.00000000000;1813.00000000000;1828.00000000000;1824.00000000000;1785.00000000000;1818.00000000000;1814.00000000000;1803.00000000000;1803.00000000000;1787.00000000000;1773.00000000000;1808.00000000000;1803.00000000000;1819.00000000000;1843.00000000000;1818.00000000000;1810.00000000000;1821.00000000000;1817.00000000000;1838.00000000000;1829.00000000000;1833.00000000000;1819.00000000000;1825.00000000000;1840.00000000000;1838.00000000000;1811.00000000000;1795.00000000000;1762.00000000000;1761.00000000000;1762.00000000000;1723.00000000000;1720.00000000000;1734.00000000000;1762.00000000000;1754.00000000000;1769.00000000000;1826.00000000000;1792.00000000000;1880.00000000000;1977.00000000000;2038.00000000000;2089.00000000000;2112.00000000000;2143.00000000000;2209.00000000000;2314.00000000000;2354.00000000000;2386.00000000000;2419.00000000000;2486.00000000000;2554.00000000000;2603.00000000000;2646.00000000000;2647.00000000000;2665.00000000000;2750.00000000000;2815.00000000000;2800.00000000000;2726.00000000000;2723.00000000000;2795.00000000000;2824.00000000000;2889.00000000000;2939.00000000000;2913.00000000000;2900.00000000000;2941.00000000000;2922.00000000000;2943.00000000000;2933.00000000000;2944.00000000000;2940.00000000000;2952.00000000000;2930.00000000000;2919.00000000000;2953.00000000000;2930.00000000000;2931.00000000000;2919.00000000000;2922.00000000000;2952.00000000000;2985.00000000000;2960.00000000000;2951.00000000000;2964.00000000000;2934.00000000000;2945.00000000000;2948.00000000000;2927.00000000000;2989.00000000000;3021.00000000000;3017.00000000000;3039.00000000000;3025.00000000000;3012.00000000000;2998.00000000000;3001.00000000000;3065.00000000000;3031.00000000000;2993.00000000000;2996.00000000000;2974.00000000000;2972.00000000000;2935.00000000000;2895.00000000000;2805.00000000000;2714.00000000000;2698.00000000000;2698.00000000000;2598.00000000000;2483.00000000000;2437.00000000000;2330.00000000000;2214.00000000000;2122.00000000000;2060.00000000000;1935.00000000000;1777.00000000000;1671.00000000000;1623.00000000000;1559.00000000000;1564.00000000000;1569.00000000000;1590.00000000000;1574.00000000000;1545.00000000000;1526.00000000000;1551.00000000000;1599.00000000000;1655.00000000000;1655.00000000000;1639.00000000000;1577.00000000000;1663.00000000000;1757.00000000000;1740.00000000000;1724.00000000000;1741.00000000000;1717.00000000000;1747.00000000000;1778.00000000000;1787.00000000000;1760.00000000000;1775.00000000000;1771.00000000000;1777.00000000000;1771.00000000000;1831.00000000000;1826.00000000000
Accel Y : 2139.00000000000;2132.00000000000;2136.00000000000;2143.00000000000;2119.00000000000;2139.00000000000;2123.00000000000;2119.00000000000;2140.00000000000;2151.00000000000;2142.00000000000;2151.00000000000;2122.00000000000;2139.00000000000;2158.00000000000;2129.00000000000;2157.00000000000;2136.00000000000;2151.00000000000;2124.00000000000;2146.00000000000;2157.00000000000;2147.00000000000;2128.00000000000;2118.00000000000;2154.00000000000;2145.00000000000;2139.00000000000;2159.00000000000;2173.00000000000;2175.00000000000;2191.00000000000;2217.00000000000;2219.00000000000;2233.00000000000;2250.00000000000;2260.00000000000;2267.00000000000;2297.00000000000;2295.00000000000;2291.00000000000;2278.00000000000;2256.00000000000;2237.00000000000;2246.00000000000;2235.00000000000;2239.00000000000;2197.00000000000;2193.00000000000;2217.00000000000;2184.00000000000;2172.00000000000;2158.00000000000;2182.00000000000;2160.00000000000;2130.00000000000;2126.00000000000;2112.00000000000;2074.00000000000;2030.00000000000;2046.00000000000;2054.00000000000;2015.00000000000;1950.00000000000;1915.00000000000;1881.00000000000;1854.00000000000;1831.00000000000;1767.00000000000;1754.00000000000;1730.00000000000;1730.00000000000;1710.00000000000;1644.00000000000;1667.00000000000;1649.00000000000;1632.00000000000;1633.00000000000;1603.00000000000;1660.00000000000;1638.00000000000;1625.00000000000;1639.00000000000;1643.00000000000;1627.00000000000;1646.00000000000;1660.00000000000;1640.00000000000;1673.00000000000;1725.00000000000;1737.00000000000;1780.00000000000;1805.00000000000;1807.00000000000;1827.00000000000;1871.00000000000;1899.00000000000;1937.00000000000;1971.00000000000;1996.00000000000;2009.00000000000;2041.00000000000;2081.00000000000;2104.00000000000;2114.00000000000;2165.00000000000;2154.00000000000;2148.00000000000;2179.00000000000;2190.00000000000;2171.00000000000;2192.00000000000;2214.00000000000;2188.00000000000;2207.00000000000;2226.00000000000;2194.00000000000;2211.00000000000;2178.00000000000;2156.00000000000;2167.00000000000;2203.00000000000;2148.00000000000;2155.00000000000;2150.00000000000;2160.00000000000;2136.00000000000;2152.00000000000;2131.00000000000;2136.00000000000;2134.00000000000;2123.00000000000;2159.00000000000;2109.00000000000;2115.00000000000;2122.00000000000;2111.00000000000;2070.00000000000;2108.00000000000;2070.00000000000;2051.00000000000;2067.00000000000;2069.00000000000;2045.00000000000;2053.00000000000;2037.00000000000;2031.00000000000;2038.00000000000;2021.00000000000;1981.00000000000
Accel Z : 2659.00000000000;2649.00000000000;2657.00000000000;2645.00000000000;2670.00000000000;2670.00000000000;2650.00000000000;2640.00000000000;2642.00000000000;2656.00000000000;2653.00000000000;2625.00000000000;2624.00000000000;2644.00000000000;2655.00000000000;2659.00000000000;2664.00000000000;2646.00000000000;2673.00000000000;2653.00000000000;2686.00000000000;2697.00000000000;2672.00000000000;2673.00000000000;2674.00000000000;2682.00000000000;2656.00000000000;2678.00000000000;2688.00000000000;2699.00000000000;2692.00000000000;2728.00000000000;2750.00000000000;2754.00000000000;2775.00000000000;2781.00000000000;2802.00000000000;2785.00000000000;2815.00000000000;2811.00000000000;2809.00000000000;2803.00000000000;2781.00000000000;2775.00000000000;2751.00000000000;2725.00000000000;2704.00000000000;2679.00000000000;2639.00000000000;2602.00000000000;2559.00000000000;2492.00000000000;2402.00000000000;2362.00000000000;2290.00000000000;2233.00000000000;2115.00000000000;2047.00000000000;1926.00000000000;1861.00000000000;1818.00000000000;1804.00000000000;1647.00000000000;1550.00000000000;1518.00000000000;1468.00000000000;1416.00000000000;1360.00000000000;1390.00000000000;1375.00000000000;1362.00000000000;1371.00000000000;1373.00000000000;1361.00000000000;1386.00000000000;1363.00000000000;1391.00000000000;1383.00000000000;1359.00000000000;1361.00000000000;1379.00000000000;1382.00000000000;1377.00000000000;1377.00000000000;1391.00000000000;1358.00000000000;1391.00000000000;1411.00000000000;1435.00000000000;1438.00000000000;1439.00000000000;1466.00000000000;1480.00000000000;1478.00000000000;1508.00000000000;1533.00000000000;1540.00000000000;1594.00000000000;1656.00000000000;1683.00000000000;1730.00000000000;1794.00000000000;1861.00000000000;1955.00000000000;2029.00000000000;2127.00000000000;2146.00000000000;2199.00000000000;2279.00000000000;2352.00000000000;2355.00000000000;2483.00000000000;2522.00000000000;2511.00000000000;2562.00000000000;2635.00000000000;2620.00000000000;2593.00000000000;2622.00000000000;2593.00000000000;2619.00000000000;2599.00000000000;2578.00000000000;2618.00000000000;2626.00000000000;2614.00000000000;2622.00000000000;2627.00000000000;2654.00000000000;2677.00000000000;2677.00000000000;2687.00000000000;2681.00000000000;2660.00000000000;2673.00000000000;2693.00000000000;2678.00000000000;2669.00000000000;2678.00000000000;2666.00000000000;2657.00000000000;2673.00000000000;2674.00000000000;2682.00000000000;2663.00000000000;2673.00000000000;2679.00000000000;2682.00000000000;2662.00000000000;2657.00000000000
Gyro X : 1815.00000000000;1813.00000000000;1828.00000000000;1824.00000000000;1785.00000000000;1818.00000000000;1814.00000000000;1803.00000000000;1803.00000000000;1787.00000000000;1773.00000000000;1808.00000000000;1803.00000000000;1819.00000000000;1843.00000000000;1818.00000000000;1810.00000000000;1821.00000000000;1817.00000000000;1838.00000000000;1829.00000000000;1833.00000000000;1819.00000000000;1825.00000000000;1840.00000000000;1838.00000000000;1811.00000000000;1795.00000000000;1762.00000000000;1761.00000000000;1762.00000000000;1723.00000000000;1720.00000000000;1734.00000000000;1762.00000000000;1754.00000000000;1769.00000000000;1826.00000000000;1792.00000000000;1880.00000000000;1977.00000000000;2038.00000000000;2089.00000000000;2112.00000000000;2143.00000000000;2209.00000000000;2314.00000000000;2354.00000000000;2386.00000000000;2419.00000000000;2486.00000000000;2554.00000000000;2603.00000000000;2646.00000000000;2647.00000000000;2665.00000000000;2750.00000000000;2815.00000000000;2800.00000000000;2726.00000000000;2723.00000000000;2795.00000000000;2824.00000000000;2889.00000000000;2939.00000000000;2913.00000000000;2900.00000000000;2941.00000000000;2922.00000000000;2943.00000000000;2933.00000000000;2944.00000000000;2940.00000000000;2952.00000000000;2930.00000000000;2919.00000000000;2953.00000000000;2930.00000000000;2931.00000000000;2919.00000000000;2922.00000000000;2952.00000000000;2985.00000000000;2960.00000000000;2951.00000000000;2964.00000000000;2934.00000000000;2945.00000000000;2948.00000000000;2927.00000000000;2989.00000000000;3021.00000000000;3017.00000000000;3039.00000000000;3025.00000000000;3012.00000000000;2998.00000000000;3001.00000000000;3065.00000000000;3031.00000000000;2993.00000000000;2996.00000000000;2974.00000000000;2972.00000000000;2935.00000000000;2895.00000000000;2805.00000000000;2714.00000000000;2698.00000000000;2698.00000000000;2598.00000000000;2483.00000000000;2437.00000000000;2330.00000000000;2214.00000000000;2122.00000000000;2060.00000000000;1935.00000000000;1777.00000000000;1671.00000000000;1623.00000000000;1559.00000000000;1564.00000000000;1569.00000000000;1590.00000000000;1574.00000000000;1545.00000000000;1526.00000000000;1551.00000000000;1599.00000000000;1655.00000000000;1655.00000000000;1639.00000000000;1577.00000000000;1663.00000000000;1757.00000000000;1740.00000000000;1724.00000000000;1741.00000000000;1717.00000000000;1747.00000000000;1778.00000000000;1787.00000000000;1760.00000000000;1775.00000000000;1771.00000000000;1777.00000000000;1771.00000000000;1831.00000000000;1826.00000000000
Gyro Y : 2139.00000000000;2132.00000000000;2136.00000000000;2143.00000000000;2119.00000000000;2139.00000000000;2123.00000000000;2119.00000000000;2140.00000000000;2151.00000000000;2142.00000000000;2151.00000000000;2122.00000000000;2139.00000000000;2158.00000000000;2129.00000000000;2157.00000000000;2136.00000000000;2151.00000000000;2124.00000000000;2146.00000000000;2157.00000000000;2147.00000000000;2128.00000000000;2118.00000000000;2154.00000000000;2145.00000000000;2139.00000000000;2159.00000000000;2173.00000000000;2175.00000000000;2191.00000000000;2217.00000000000;2219.00000000000;2233.00000000000;2250.00000000000;2260.00000000000;2267.00000000000;2297.00000000000;2295.00000000000;2291.00000000000;2278.00000000000;2256.00000000000;2237.00000000000;2246.00000000000;2235.00000000000;2239.00000000000;2197.00000000000;2193.00000000000;2217.00000000000;2184.00000000000;2172.00000000000;2158.00000000000;2182.00000000000;2160.00000000000;2130.00000000000;2126.00000000000;2112.00000000000;2074.00000000000;2030.00000000000;2046.00000000000;2054.00000000000;2015.00000000000;1950.00000000000;1915.00000000000;1881.00000000000;1854.00000000000;1831.00000000000;1767.00000000000;1754.00000000000;1730.00000000000;1730.00000000000;1710.00000000000;1644.00000000000;1667.00000000000;1649.00000000000;1632.00000000000;1633.00000000000;1603.00000000000;1660.00000000000;1638.00000000000;1625.00000000000;1639.00000000000;1643.00000000000;1627.00000000000;1646.00000000000;1660.00000000000;1640.00000000000;1673.00000000000;1725.00000000000;1737.00000000000;1780.00000000000;1805.00000000000;1807.00000000000;1827.00000000000;1871.00000000000;1899.00000000000;1937.00000000000;1971.00000000000;1996.00000000000;2009.00000000000;2041.00000000000;2081.00000000000;2104.00000000000;2114.00000000000;2165.00000000000;2154.00000000000;2148.00000000000;2179.00000000000;2190.00000000000;2171.00000000000;2192.00000000000;2214.00000000000;2188.00000000000;2207.00000000000;2226.00000000000;2194.00000000000;2211.00000000000;2178.00000000000;2156.00000000000;2167.00000000000;2203.00000000000;2148.00000000000;2155.00000000000;2150.00000000000;2160.00000000000;2136.00000000000;2152.00000000000;2131.00000000000;2136.00000000000;2134.00000000000;2123.00000000000;2159.00000000000;2109.00000000000;2115.00000000000;2122.00000000000;2111.00000000000;2070.00000000000;2108.00000000000;2070.00000000000;2051.00000000000;2067.00000000000;2069.00000000000;2045.00000000000;2053.00000000000;2037.00000000000;2031.00000000000;2038.00000000000;2021.00000000000;1981.00000000000
Gyro Z : 2659.00000000000;2649.00000000000;2657.00000000000;2645.00000000000;2670.00000000000;2670.00000000000;2650.00000000000;2640.00000000000;2642.00000000000;2656.00000000000;2653.00000000000;2625.00000000000;2624.00000000000;2644.00000000000;2655.00000000000;2659.00000000000;2664.00000000000;2646.00000000000;2673.00000000000;2653.00000000000;2686.00000000000;2697.00000000000;2672.00000000000;2673.00000000000;2674.00000000000;2682.00000000000;2656.00000000000;2678.00000000000;2688.00000000000;2699.00000000000;2692.00000000000;2728.00000000000;2750.00000000000;2754.00000000000;2775.00000000000;2781.00000000000;2802.00000000000;2785.00000000000;2815.00000000000;2811.00000000000;2809.00000000000;2803.00000000000;2781.00000000000;2775.00000000000;2751.00000000000;2725.00000000000;2704.00000000000;2679.00000000000;2639.00000000000;2602.00000000000;2559.00000000000;2492.00000000000;2402.00000000000;2362.00000000000;2290.00000000000;2233.00000000000;2115.00000000000;2047.00000000000;1926.00000000000;1861.00000000000;1818.00000000000;1804.00000000000;1647.00000000000;1550.00000000000;1518.00000000000;1468.00000000000;1416.00000000000;1360.00000000000;1390.00000000000;1375.00000000000;1362.00000000000;1371.00000000000;1373.00000000000;1361.00000000000;1386.00000000000;1363.00000000000;1391.00000000000;1383.00000000000;1359.00000000000;1361.00000000000;1379.00000000000;1382.00000000000;1377.00000000000;1377.00000000000;1391.00000000000;1358.00000000000;1391.00000000000;1411.00000000000;1435.00000000000;1438.00000000000;1439.00000000000;1466.00000000000;1480.00000000000;1478.00000000000;1508.00000000000;1533.00000000000;1540.00000000000;1594.00000000000;1656.00000000000;1683.00000000000;1730.00000000000;1794.00000000000;1861.00000000000;1955.00000000000;2029.00000000000;2127.00000000000;2146.00000000000;2199.00000000000;2279.00000000000;2352.00000000000;2355.00000000000;2483.00000000000;2522.00000000000;2511.00000000000;2562.00000000000;2635.00000000000;2620.00000000000;2593.00000000000;2622.00000000000;2593.00000000000;2619.00000000000;2599.00000000000;2578.00000000000;2618.00000000000;2626.00000000000;2614.00000000000;2622.00000000000;2627.00000000000;2654.00000000000;2677.00000000000;2677.00000000000;2687.00000000000;2681.00000000000;2660.00000000000;2673.00000000000;2693.00000000000;2678.00000000000;2669.00000000000;2678.00000000000;2666.00000000000;2657.00000000000;2673.00000000000;2674.00000000000;2682.00000000000;2663.00000000000;2673.00000000000;2679.00000000000;2682.00000000000;2662.00000000000;2657.00000000000
