COMMAND 2 SAMPLE 1
Accel X : 1735.00000000000;1730.00000000000;1721.00000000000;1698.00000000000;1673.00000000000;1690.00000000000;1658.00000000000;1632.00000000000;1647.00000000000;1650.00000000000;1649.00000000000;1627.00000000000;1694.00000000000;1777.00000000000;1826.00000000000;1801.00000000000;1830.00000000000;1806.00000000000;1863.00000000000;1886.00000000000;1845.00000000000;1847.00000000000;1808.00000000000;1765.00000000000;1735.00000000000;1786.00000000000;1816.00000000000;1789.00000000000;1759.00000000000;1691.00000000000;1672.00000000000;1717.00000000000;1835.00000000000;1915.00000000000;1939.00000000000;1946.00000000000;1974.00000000000;1982.00000000000;1985.00000000000;2042.00000000000;2093.00000000000;2186.00000000000;2222.00000000000;2253.00000000000;2333.00000000000;2352.00000000000;2375.00000000000;2386.00000000000;2411.00000000000;2476.00000000000;2521.00000000000;2588.00000000000;2616.00000000000;2737.00000000000;2799.00000000000;2779.00000000000;2758.00000000000;2856.00000000000;2841.00000000000;2896.00000000000;2945.00000000000;2989.00000000000;3007.00000000000;3004.00000000000;2931.00000000000;2932.00000000000;2965.00000000000;2947.00000000000;2892.00000000000;2880.00000000000;2875.00000000000;2875.00000000000;2886.00000000000;2866.00000000000;2889.00000000000;2840.00000000000;2866.00000000000;2894.00000000000;2902.00000000000;2932.00000000000;2916.00000000000;2944.00000000000;2994.00000000000;3048.00000000000;3007.00000000000;3001.00000000000;3061.00000000000;3122.00000000000;3099.00000000000;3004.00000000000;2962.00000000000;2962.00000000000;2970.00000000000;2945.00000000000;2902.00000000000;2824.00000000000;2811.00000000000;2846.00000000000;2790.00000000000;2731.00000000000;2723.00000000000;2673.00000000000;2611.00000000000;2573.00000000000;2576.00000000000;2551.00000000000;2475.00000000000;2381.00000000000;2326.00000000000;2345.00000000000;2337.00000000000;2205.00000000000;2090.00000000000;2024.00000000000;1987.00000000000;1919.00000000000;1880.00000000000;1858.00000000000;1746.00000000000;1690.00000000000;1685.00000000000;1706.00000000000;1755.00000000000;1700.00000000000;1631.00000000000;1578.00000000000;1603.00000000000;1639.00000000000;1704.00000000000;1741.00000000000;1715.00000000000;1686.00000000000;1683.00000000000;1709.00000000000;1723.00000000000;1744.00000000000;1734.00000000000;1739.00000000000;1749.00000000000;1778.00000000000;1808.00000000000;1820.00000000000;1789.00000000000;1812.00000000000;1838.00000000000;1840.00000000000;1812.00000000000;1782.00000000000;1805.00000000000;1821.00000000000
Accel Y : 2190.00000000000;2175.00000000000;2172.00000000000;2177.00000000000;2151.00000000000;2158.00000000000;2177.00000000000;2159.00000000000;2170.00000000000;2160.00000000000;2151.00000000000;2145.00000000000;2130.00000000000;2140.00000000000;2124.00000000000;2112.00000000000;2119.00000000000;2121.00000000000;2131.00000000000;2146.00000000000;2144.00000000000;2139.00000000000;2186.00000000000;2174.00000000000;2205.00000000000;2205.00000000000;2215.00000000000;2203.00000000000;2222.00000000000;2211.00000000000;2216.00000000000;2209.00000000000;2203.00000000000;2221.00000000000;2208.00000000000;2190.00000000000;2187.00000000000;2183.00000000000;2195.00000000000;2181.00000000000;2200.00000000000;2210.00000000000;2221.00000000000;2229.00000000000;2221.00000000000;2228.00000000000;2222.00000000000;2206.00000000000;2209.00000000000;2233.00000000000;2210.00000000000;2180.00000000000;2120.00000000000;2010.00000000000;2027.00000000000;2043.00000000000;2058.00000000000;2003.00000000000;2213.00000000000;1873.00000000000;1926.00000000000;1844.00000000000;1826.00000000000;1829.00000000000;1779.00000000000;1740.00000000000;1751.00000000000;1698.00000000000;1730.00000000000;1703.00000000000;1715.00000000000;1700.00000000000;1684.00000000000;1684.00000000000;1680.00000000000;1688.00000000000;1666.00000000000;1675.00000000000;1673.00000000000;1681.00000000000;1681.00000000000;1637.00000000000;1625.00000000000;1647.00000000000;1675.00000000000;1683.00000000000;1707.00000000000;1690.00000000000;1711.00000000000;1821.00000000000;1820.00000000000;1839.00000000000;1848.00000000000;1893.00000000000;1936.00000000000;1969.00000000000;1978.00000000000;1975.00000000000;2053.00000000000;2073.00000000000;2062.00000000000;2095.00000000000;2147.00000000000;2176.00000000000;2139.00000000000;2188.00000000000;2254.00000000000;2220.00000000000;2192.00000000000;2253.00000000000;2315.00000000000;2240.00000000000;2223.00000000000;2241.00000000000;2230.00000000000;2219.00000000000;2194.00000000000;2199.00000000000;2172.00000000000;2171.00000000000;2163.00000000000;2180.00000000000;2196.00000000000;2188.00000000000;2160.00000000000;2189.00000000000;2187.00000000000;2160.00000000000;2167.00000000000;2185.00000000000;2174.00000000000;2146.00000000000;2157.00000000000;2174.00000000000;2153.00000000000;2154.00000000000;2140.00000000000;2159.00000000000;2143.00000000000;2123.00000000000;2110.00000000000;2115.00000000000;2148.00000000000;2109.00000000000;2101.00000000000;2107.00000000000;2102.00000000000;2099.00000000000;2103.00000000000;2106.00000000000
Accel Z : 2634.00000000000;2659.00000000000;2666.00000000000;2682.00000000000;2726.00000000000;2747.00000000000;2789.00000000000;2769.00000000000;2742.00000000000;2755.00000000000;2754.00000000000;2716.00000000000;2679.00000000000;2639.00000000000;2598.00000000000;2603.00000000000;2553.00000000000;2543.00000000000;2549.00000000000;2555.00000000000;2539.00000000000;2587.00000000000;2631.00000000000;2641.00000000000;2667.00000000000;2723.00000000000;2746.00000000000;2780.00000000000;2777.00000000000;2786.00000000000;2817.00000000000;2794.00000000000;2821.00000000000;2849.00000000000;2819.00000000000;2831.00000000000;2779.00000000000;2795.00000000000;2732.00000000000;2734.00000000000;2699.00000000000;2672.00000000000;2636.00000000000;2611.00000000000;2573.00000000000;2563.00000000000;2524.00000000000;2482.00000000000;2448.00000000000;2408.00000000000;2343.00000000000;2283.00000000000;2200.00000000000;2126.00000000000;2071.00000000000;2050.00000000000;2018.00000000000;1970.00000000000;1852.00000000000;1726.00000000000;1767.00000000000;1761.00000000000;1710.00000000000;1784.00000000000;1779.00000000000;1719.00000000000;1767.00000000000;1752.00000000000;1735.00000000000;1795.00000000000;1733.00000000000;1762.00000000000;1762.00000000000;1755.00000000000;1779.00000000000;1742.00000000000;1744.00000000000;1712.00000000000;1706.00000000000;1652.00000000000;1656.00000000000;1612.00000000000;1543.00000000000;1540.00000000000;1508.00000000000;1493.00000000000;1548.00000000000;1573.00000000000;1605.00000000000;1614.00000000000;1669.00000000000;1725.00000000000;1746.00000000000;1845.00000000000;1922.00000000000;1933.00000000000;1932.00000000000;1992.00000000000;2093.00000000000;2127.00000000000;2167.00000000000;2230.00000000000;2310.00000000000;2332.00000000000;2355.00000000000;2462.00000000000;2555.00000000000;2479.00000000000;2512.00000000000;2655.00000000000;2715.00000000000;2666.00000000000;2673.00000000000;2660.00000000000;2687.00000000000;2753.00000000000;2747.00000000000;2736.00000000000;2698.00000000000;2658.00000000000;2690.00000000000;2704.00000000000;2733.00000000000;2695.00000000000;2693.00000000000;2659.00000000000;2645.00000000000;2649.00000000000;2670.00000000000;2658.00000000000;2655.00000000000;2687.00000000000;2695.00000000000;2676.00000000000;2692.00000000000;2661.00000000000;2669.00000000000;2682.00000000000;2698.00000000000;2676.00000000000;2679.00000000000;2686.00000000000;2676.00000000000;2689.00000000000;2699.00000000000;2689.00000000000;2678.00000000000;2680.00000000000;2675.00000000000;2688.00000000000
Gyro X : 1735.00000000000;1730.00000000000;1721.00000000000;1698.00000000000;1673.00000000000;1690.00000000000;1658.00000000000;1632.00000000000;1647.00000000000;1650.00000000000;1649.00000000000;1627.00000000000;1694.00000000000;1777.00000000000;1826.00000000000;1801.00000000000;1830.00000000000;1806.00000000000;1863.00000000000;1886.00000000000;1845.00000000000;1847.00000000000;1808.00000000000;1765.00000000000;1735.00000000000;1786.00000000000;1816.00000000000;1789.00000000000;1759.00000000000;1691.00000000000;1672.00000000000;1717.00000000000;1835.00000000000;1915.00000000000;1939.00000000000;1946.00000000000;1974.00000000000;1982.00000000000;1985.00000000000;2042.00000000000;2093.00000000000;2186.00000000000;2222.00000000000;2253.00000000000;2333.00000000000;2352.00000000000;2375.00000000000;2386.00000000000;2411.00000000000;2476.00000000000;2521.00000000000;2588.00000000000;2616.00000000000;2737.00000000000;2799.00000000000;2779.00000000000;2758.00000000000;2856.00000000000;2841.00000000000;2896.00000000000;2945.00000000000;2989.00000000000;3007.00000000000;3004.00000000000;2931.00000000000;2932.00000000000;2965.00000000000;2947.00000000000;2892.00000000000;2880.00000000000;2875.00000000000;2875.00000000000;2886.00000000000;2866.00000000000;2889.00000000000;2840.00000000000;2866.00000000000;2894.00000000000;2902.00000000000;2932.00000000000;2916.00000000000;2944.00000000000;2994.00000000000;3048.00000000000;3007.00000000000;3001.00000000000;3061.00000000000;3122.00000000000;3099.00000000000;3004.00000000000;2962.00000000000;2962.00000000000;2970.00000000000;2945.00000000000;2902.00000000000;2824.00000000000;2811.00000000000;2846.00000000000;2790.00000000000;2731.00000000000;2723.00000000000;2673.00000000000;2611.00000000000;2573.00000000000;2576.00000000000;2551.00000000000;2475.00000000000;2381.00000000000;2326.00000000000;2345.00000000000;2337.00000000000;2205.00000000000;2090.00000000000;2024.00000000000;1987.00000000000;1919.00000000000;1880.00000000000;1858.00000000000;1746.00000000000;1690.00000000000;1685.00000000000;1706.00000000000;1755.00000000000;1700.00000000000;1631.00000000000;1578.00000000000;1603.00000000000;1639.00000000000;1704.00000000000;1741.00000000000;1715.00000000000;1686.00000000000;1683.00000000000;1709.00000000000;1723.00000000000;1744.00000000000;1734.00000000000;1739.00000000000;1749.00000000000;1778.00000000000;1808.00000000000;1820.00000000000;1789.00000000000;1812.00000000000;1838.00000000000;1840.00000000000;1812.00000000000;1782.00000000000;1805.00000000000;1821.00000000000
Gyro Y : 2190.00000000000;2175.00000000000;2172.00000000000;2177.00000000000;2151.00000000000;2158.00000000000;2177.00000000000;2159.00000000000;2170.00000000000;2160.00000000000;2151.00000000000;2145.00000000000;2130.00000000000;2140.00000000000;2124.00000000000;2112.00000000000;2119.00000000000;2121.00000000000;2131.00000000000;2146.00000000000;2144.00000000000;2139.00000000000;2186.00000000000;2174.00000000000;2205.00000000000;2205.00000000000;2215.00000000000;2203.00000000000;2222.00000000000;2211.00000000000;2216.00000000000;2209.00000000000;2203.00000000000;2221.00000000000;2208.00000000000;2190.00000000000;2187.00000000000;2183.00000000000;2195.00000000000;2181.00000000000;2200.00000000000;2210.00000000000;2221.00000000000;2229.00000000000;2221.00000000000;2228.00000000000;2222.00000000000;2206.00000000000;2209.00000000000;2233.00000000000;2210.00000000000;2180.00000000000;2120.00000000000;2010.00000000000;2027.00000000000;2043.00000000000;2058.00000000000;2003.00000000000;2213.00000000000;1873.00000000000;1926.00000000000;1844.00000000000;1826.00000000000;1829.00000000000;1779.00000000000;1740.00000000000;1751.00000000000;1698.00000000000;1730.00000000000;1703.00000000000;1715.00000000000;1700.00000000000;1684.00000000000;1684.00000000000;1680.00000000000;1688.00000000000;1666.00000000000;1675.00000000000;1673.00000000000;1681.00000000000;1681.00000000000;1637.00000000000;1625.00000000000;1647.00000000000;1675.00000000000;1683.00000000000;1707.00000000000;1690.00000000000;1711.00000000000;1821.00000000000;1820.00000000000;1839.00000000000;1848.00000000000;1893.00000000000;1936.00000000000;1969.00000000000;1978.00000000000;1975.00000000000;2053.00000000000;2073.00000000000;2062.00000000000;2095.00000000000;2147.00000000000;2176.00000000000;2139.00000000000;2188.00000000000;2254.00000000000;2220.00000000000;2192.00000000000;2253.00000000000;2315.00000000000;2240.00000000000;2223.00000000000;2241.00000000000;2230.00000000000;2219.00000000000;2194.00000000000;2199.00000000000;2172.00000000000;2171.00000000000;2163.00000000000;2180.00000000000;2196.00000000000;2188.00000000000;2160.00000000000;2189.00000000000;2187.00000000000;2160.00000000000;2167.00000000000;2185.00000000000;2174.00000000000;2146.00000000000;2157.00000000000;2174.00000000000;2153.00000000000;2154.00000000000;2140.00000000000;2159.00000000000;2143.00000000000;2123.00000000000;2110.00000000000;2115.00000000000;2148.00000000000;2109.00000000000;2101.00000000000;2107.00000000000;2102.00000000000;2099.00000000000;2103.00000000000;2106.00000000000
Gyro Z : 2634.00000000000;2659.00000000000;2666.00000000000;2682.00000000000;2726.00000000000;2747.00000000000;2789.00000000000;2769.00000000000;2742.00000000000;2755.00000000000;2754.00000000000;2716.00000000000;2679.00000000000;2639.00000000000;2598.00000000000;2603.00000000000;2553.00000000000;2543.00000000000;2549.00000000000;2555.00000000000;2539.00000000000;2587.00000000000;2631.00000000000;2641.00000000000;2667.00000000000;2723.00000000000;2746.00000000000;2780.00000000000;2777.00000000000;2786.00000000000;2817.00000000000;2794.00000000000;2821.00000000000;2849.00000000000;2819.00000000000;2831.00000000000;2779.00000000000;2795.00000000000;2732.00000000000;2734.00000000000;2699.00000000000;2672.00000000000;2636.00000000000;2611.00000000000;2573.00000000000;2563.00000000000;2524.00000000000;2482.00000000000;2448.00000000000;2408.00000000000;2343.00000000000;2283.00000000000;2200.00000000000;2126.00000000000;2071.00000000000;2050.00000000000;2018.00000000000;1970.00000000000;1852.00000000000;1726.00000000000;1767.00000000000;1761.00000000000;1710.00000000000;1784.00000000000;1779.00000000000;1719.00000000000;1767.00000000000;1752.00000000000;1735.00000000000;1795.00000000000;1733.00000000000;1762.00000000000;1762.00000000000;1755.00000000000;1779.00000000000;1742.00000000000;1744.00000000000;1712.00000000000;1706.00000000000;1652.00000000000;1656.00000000000;1612.00000000000;1543.00000000000;1540.00000000000;1508.00000000000;1493.00000000000;1548.00000000000;1573.00000000000;1605.00000000000;1614.00000000000;1669.00000000000;1725.00000000000;1746.00000000000;1845.00000000000;1922.00000000000;1933.00000000000;1932.00000000000;1992.00000000000;2093.00000000000;2127.00000000000;2167.00000000000;2230.00000000000;2310.00000000000;2332.00000000000;2355.00000000000;2462.00000000000;2555.00000000000;2479.00000000000;2512.00000000000;2655.00000000000;2715.00000000000;2666.00000000000;2673.00000000000;2660.00000000000;2687.00000000000;2753.00000000000;2747.00000000000;2736.00000000000;2698.00000000000;2658.00000000000;2690.00000000000;2704.00000000000;2733.00000000000;2695.00000000000;2693.00000000000;2659.00000000000;2645.00000000000;2649.00000000000;2670.00000000000;2658.00000000000;2655.00000000000;2687.00000000000;2695.00000000000;2676.00000000000;2692.00000000000;2661.00000000000;2669.00000000000;2682.00000000000;2698.00000000000;2676.00000000000;2679.00000000000;2686.00000000000;2676.00000000000;2689.00000000000;2699.00000000000;2689.00000000000;2678.00000000000;2680.00000000000;2675.00000000000;2688.00000000000
