COMMAND 1 SAMPLE 1
Accel X : 1727.00000000000;1761.00000000000;1766.00000000000;1723.00000000000;1750.00000000000;1744.00000000000;1762.00000000000;1731.00000000000;1727.00000000000;1738.00000000000;1760.00000000000;1745.00000000000;1745.00000000000;1733.00000000000;1739.00000000000;1727.00000000000;1726.00000000000;1748.00000000000;1737.00000000000;1724.00000000000;1741.00000000000;1730.00000000000;1740.00000000000;1746.00000000000;1715.00000000000;1720.00000000000;1739.00000000000;1741.00000000000;1684.00000000000;1739.00000000000;1799.00000000000;1719.00000000000;1686.00000000000;1703.00000000000;1652.00000000000;1614.00000000000;1725.00000000000;1899.00000000000;2081.00000000000;2207.00000000000;2203.00000000000;2127.00000000000;2207.00000000000;2386.00000000000;2365.00000000000;2391.00000000000;2621.00000000000;2631.00000000000;2649.00000000000;2734.00000000000;2748.00000000000;2766.00000000000;2659.00000000000;2619.00000000000;2519.00000000000;2433.00000000000;2319.00000000000;2154.00000000000;2095.00000000000;2030.00000000000;1937.00000000000;1813.00000000000;1733.00000000000;1705.00000000000;1700.00000000000;1564.00000000000;1461.00000000000;1403.00000000000;1351.00000000000;1324.00000000000;1284.00000000000;1226.00000000000;1088.00000000000;929.000000000000;810.000000000000;769.000000000000;840.000000000000;847.000000000000;812.000000000000;803.000000000000;860.000000000000;968.000000000000;1174.00000000000;1263.00000000000;1388.00000000000;1435.00000000000;1524.00000000000;1635.00000000000;1900.00000000000;1975.00000000000;1890.00000000000;1964.00000000000;2096.00000000000;2225.00000000000;2373.00000000000;2444.00000000000;2579.00000000000;2663.00000000000;2553.00000000000;2369.00000000000;2304.00000000000;2539.00000000000;2690.00000000000;2644.00000000000;2494.00000000000;2445.00000000000;2359.00000000000;2212.00000000000;1940.00000000000;1805.00000000000;1866.00000000000;2057.00000000000;1968.00000000000;1859.00000000000;1848.00000000000;1923.00000000000;1906.00000000000;1928.00000000000;1942.00000000000;1874.00000000000;1826.00000000000;1783.00000000000;1889.00000000000;1941.00000000000;1898.00000000000;1885.00000000000;1894.00000000000;1892.00000000000;1909.00000000000;1911.00000000000;1912.00000000000;1913.00000000000;1875.00000000000;1901.00000000000;1928.00000000000;1896.00000000000;1902.00000000000;1898.00000000000;1891.00000000000;1868.00000000000;1842.00000000000;1851.00000000000;1870.00000000000;1887.00000000000;1881.00000000000;1870.00000000000;1851.00000000000;1855.00000000000;1852.00000000000;1893.00000000000
Accel Y : 2112.00000000000;2121.00000000000;2078.00000000000;2127.00000000000;2093.00000000000;2099.00000000000;2099.00000000000;2111.00000000000;2103.00000000000;2116.00000000000;2118.00000000000;2090.00000000000;2114.00000000000;2121.00000000000;2103.00000000000;2098.00000000000;2104.00000000000;2112.00000000000;2127.00000000000;2127.00000000000;2118.00000000000;2120.00000000000;2119.00000000000;2097.00000000000;2095.00000000000;2118.00000000000;2103.00000000000;2116.00000000000;2122.00000000000;2121.00000000000;2101.00000000000;2117.00000000000;2142.00000000000;2131.00000000000;2152.00000000000;2182.00000000000;2151.00000000000;2092.00000000000;2087.00000000000;2130.00000000000;2179.00000000000;2163.00000000000;2113.00000000000;2137.00000000000;2147.00000000000;2019.00000000000;1978.00000000000;2043.00000000000;1979.00000000000;1870.00000000000;1788.00000000000;1780.00000000000;1657.00000000000;1595.00000000000;1478.00000000000;1426.00000000000;1375.00000000000;1318.00000000000;1271.00000000000;1353.00000000000;1345.00000000000;1287.00000000000;1293.00000000000;1318.00000000000;1304.00000000000;1283.00000000000;1325.00000000000;1335.00000000000;1349.00000000000;1347.00000000000;1398.00000000000;1446.00000000000;1453.00000000000;1449.00000000000;1411.00000000000;1373.00000000000;1380.00000000000;1431.00000000000;1373.00000000000;1378.00000000000;1351.00000000000;1339.00000000000;1389.00000000000;1388.00000000000;1401.00000000000;1345.00000000000;1451.00000000000;1496.00000000000;1511.00000000000;1515.00000000000;1604.00000000000;1767.00000000000;1901.00000000000;2108.00000000000;2214.00000000000;2318.00000000000;2252.00000000000;2315.00000000000;2325.00000000000;2208.00000000000;2212.00000000000;2160.00000000000;2110.00000000000;2096.00000000000;2073.00000000000;2120.00000000000;2122.00000000000;2122.00000000000;2160.00000000000;2147.00000000000;2144.00000000000;2157.00000000000;2147.00000000000;2129.00000000000;2137.00000000000;2147.00000000000;2145.00000000000;2158.00000000000;2167.00000000000;2137.00000000000;2118.00000000000;2105.00000000000;2107.00000000000;2109.00000000000;2126.00000000000;2119.00000000000;2123.00000000000;2128.00000000000;2108.00000000000;2110.00000000000;2118.00000000000;2115.00000000000;2106.00000000000;2112.00000000000;2105.00000000000;2109.00000000000;2133.00000000000;2122.00000000000;2101.00000000000;2118.00000000000;2115.00000000000;2106.00000000000;2120.00000000000;2118.00000000000;2126.00000000000;2122.00000000000;2124.00000000000;2127.00000000000;2120.00000000000;2116.00000000000
Accel Z : 2647.00000000000;2655.00000000000;2660.00000000000;2646.00000000000;2651.00000000000;2663.00000000000;2650.00000000000;2642.00000000000;2650.00000000000;2630.00000000000;2642.00000000000;2647.00000000000;2650.00000000000;2650.00000000000;2647.00000000000;2660.00000000000;2651.00000000000;2653.00000000000;2662.00000000000;2642.00000000000;2659.00000000000;2662.00000000000;2658.00000000000;2653.00000000000;2648.00000000000;2631.00000000000;2645.00000000000;2637.00000000000;2638.00000000000;2640.00000000000;2652.00000000000;2632.00000000000;2616.00000000000;2628.00000000000;2641.00000000000;2605.00000000000;2561.00000000000;2565.00000000000;2576.00000000000;2741.00000000000;2713.00000000000;2693.00000000000;2689.00000000000;2768.00000000000;2786.00000000000;2710.00000000000;2754.00000000000;2796.00000000000;2696.00000000000;2641.00000000000;2621.00000000000;2637.00000000000;2554.00000000000;2470.00000000000;2393.00000000000;2359.00000000000;2320.00000000000;2257.00000000000;2173.00000000000;2098.00000000000;2017.00000000000;1955.00000000000;1913.00000000000;1905.00000000000;1894.00000000000;1832.00000000000;1788.00000000000;1768.00000000000;1716.00000000000;1708.00000000000;1747.00000000000;1767.00000000000;1704.00000000000;1581.00000000000;1506.00000000000;1500.00000000000;1520.00000000000;1558.00000000000;1487.00000000000;1511.00000000000;1514.00000000000;1524.00000000000;1585.00000000000;1576.00000000000;1564.00000000000;1654.00000000000;1702.00000000000;1645.00000000000;1819.00000000000;1813.00000000000;1836.00000000000;1897.00000000000;2035.00000000000;2292.00000000000;2450.00000000000;2454.00000000000;2454.00000000000;2748.00000000000;2837.00000000000;2697.00000000000;2724.00000000000;2772.00000000000;2900.00000000000;2905.00000000000;2926.00000000000;2855.00000000000;2833.00000000000;2866.00000000000;2877.00000000000;2832.00000000000;2811.00000000000;2834.00000000000;2785.00000000000;2719.00000000000;2737.00000000000;2763.00000000000;2730.00000000000;2736.00000000000;2719.00000000000;2703.00000000000;2699.00000000000;2674.00000000000;2685.00000000000;2704.00000000000;2687.00000000000;2659.00000000000;2663.00000000000;2638.00000000000;2690.00000000000;2683.00000000000;2673.00000000000;2650.00000000000;2635.00000000000;2646.00000000000;2653.00000000000;2652.00000000000;2642.00000000000;2661.00000000000;2667.00000000000;2683.00000000000;2666.00000000000;2671.00000000000;2695.00000000000;2693.00000000000;2667.00000000000;2695.00000000000;2674.00000000000;2679.00000000000;2680.00000000000;2653.00000000000
Gyro X : 1727.00000000000;1761.00000000000;1766.00000000000;1723.00000000000;1750.00000000000;1744.00000000000;1762.00000000000;1731.00000000000;1727.00000000000;1738.00000000000;1760.00000000000;1745.00000000000;1745.00000000000;1733.00000000000;1739.00000000000;1727.00000000000;1726.00000000000;1748.00000000000;1737.00000000000;1724.00000000000;1741.00000000000;1730.00000000000;1740.00000000000;1746.00000000000;1715.00000000000;1720.00000000000;1739.00000000000;1741.00000000000;1684.00000000000;1739.00000000000;1799.00000000000;1719.00000000000;1686.00000000000;1703.00000000000;1652.00000000000;1614.00000000000;1725.00000000000;1899.00000000000;2081.00000000000;2207.00000000000;2203.00000000000;2127.00000000000;2207.00000000000;2386.00000000000;2365.00000000000;2391.00000000000;2621.00000000000;2631.00000000000;2649.00000000000;2734.00000000000;2748.00000000000;2766.00000000000;2659.00000000000;2619.00000000000;2519.00000000000;2433.00000000000;2319.00000000000;2154.00000000000;2095.00000000000;2030.00000000000;1937.00000000000;1813.00000000000;1733.00000000000;1705.00000000000;1700.00000000000;1564.00000000000;1461.00000000000;1403.00000000000;1351.00000000000;1324.00000000000;1284.00000000000;1226.00000000000;1088.00000000000;929.000000000000;810.000000000000;769.000000000000;840.000000000000;847.000000000000;812.000000000000;803.000000000000;860.000000000000;968.000000000000;1174.00000000000;1263.00000000000;1388.00000000000;1435.00000000000;1524.00000000000;1635.00000000000;1900.00000000000;1975.00000000000;1890.00000000000;1964.00000000000;2096.00000000000;2225.00000000000;2373.00000000000;2444.00000000000;2579.00000000000;2663.00000000000;2553.00000000000;2369.00000000000;2304.00000000000;2539.00000000000;2690.00000000000;2644.00000000000;2494.00000000000;2445.00000000000;2359.00000000000;2212.00000000000;1940.00000000000;1805.00000000000;1866.00000000000;2057.00000000000;1968.00000000000;1859.00000000000;1848.00000000000;1923.00000000000;1906.00000000000;1928.00000000000;1942.00000000000;1874.00000000000;1826.00000000000;1783.00000000000;1889.00000000000;1941.00000000000;1898.00000000000;1885.00000000000;1894.00000000000;1892.00000000000;1909.00000000000;1911.00000000000;1912.00000000000;1913.00000000000;1875.00000000000;1901.00000000000;1928.00000000000;1896.00000000000;1902.00000000000;1898.00000000000;1891.00000000000;1868.00000000000;1842.00000000000;1851.00000000000;1870.00000000000;1887.00000000000;1881.00000000000;1870.00000000000;1851.00000000000;1855.00000000000;1852.00000000000;1893.00000000000
Gyro Y : 2112.00000000000;2121.00000000000;2078.00000000000;2127.00000000000;2093.00000000000;2099.00000000000;2099.00000000000;2111.00000000000;2103.00000000000;2116.00000000000;2118.00000000000;2090.00000000000;2114.00000000000;2121.00000000000;2103.00000000000;2098.00000000000;2104.00000000000;2112.00000000000;2127.00000000000;2127.00000000000;2118.00000000000;2120.00000000000;2119.00000000000;2097.00000000000;2095.00000000000;2118.00000000000;2103.00000000000;2116.00000000000;2122.00000000000;2121.00000000000;2101.00000000000;2117.00000000000;2142.00000000000;2131.00000000000;2152.00000000000;2182.00000000000;2151.00000000000;2092.00000000000;2087.00000000000;2130.00000000000;2179.00000000000;2163.00000000000;2113.00000000000;2137.00000000000;2147.00000000000;2019.00000000000;1978.00000000000;2043.00000000000;1979.00000000000;1870.00000000000;1788.00000000000;1780.00000000000;1657.00000000000;1595.00000000000;1478.00000000000;1426.00000000000;1375.00000000000;1318.00000000000;1271.00000000000;1353.00000000000;1345.00000000000;1287.00000000000;1293.00000000000;1318.00000000000;1304.00000000000;1283.00000000000;1325.00000000000;1335.00000000000;1349.00000000000;1347.00000000000;1398.00000000000;1446.00000000000;1453.00000000000;1449.00000000000;1411.00000000000;1373.00000000000;1380.00000000000;1431.00000000000;1373.00000000000;1378.00000000000;1351.00000000000;1339.00000000000;1389.00000000000;1388.00000000000;1401.00000000000;1345.00000000000;1451.00000000000;1496.00000000000;1511.00000000000;1515.00000000000;1604.00000000000;1767.00000000000;1901.00000000000;2108.00000000000;2214.00000000000;2318.00000000000;2252.00000000000;2315.00000000000;2325.00000000000;2208.00000000000;2212.00000000000;2160.00000000000;2110.00000000000;2096.00000000000;2073.00000000000;2120.00000000000;2122.00000000000;2122.00000000000;2160.00000000000;2147.00000000000;2144.00000000000;2157.00000000000;2147.00000000000;2129.00000000000;2137.00000000000;2147.00000000000;2145.00000000000;2158.00000000000;2167.00000000000;2137.00000000000;2118.00000000000;2105.00000000000;2107.00000000000;2109.00000000000;2126.00000000000;2119.00000000000;2123.00000000000;2128.00000000000;2108.00000000000;2110.00000000000;2118.00000000000;2115.00000000000;2106.00000000000;2112.00000000000;2105.00000000000;2109.00000000000;2133.00000000000;2122.00000000000;2101.00000000000;2118.00000000000;2115.00000000000;2106.00000000000;2120.00000000000;2118.00000000000;2126.00000000000;2122.00000000000;2124.00000000000;2127.00000000000;2120.00000000000;2116.00000000000
Gyro Z : 2647.00000000000;2655.00000000000;2660.00000000000;2646.00000000000;2651.00000000000;2663.00000000000;2650.00000000000;2642.00000000000;2650.00000000000;2630.00000000000;2642.00000000000;2647.00000000000;2650.00000000000;2650.00000000000;2647.00000000000;2660.00000000000;2651.00000000000;2653.00000000000;2662.00000000000;2642.00000000000;2659.00000000000;2662.00000000000;2658.00000000000;2653.00000000000;2648.00000000000;2631.00000000000;2645.00000000000;2637.00000000000;2638.00000000000;2640.00000000000;2652.00000000000;2632.00000000000;2616.00000000000;2628.00000000000;2641.00000000000;2605.00000000000;2561.00000000000;2565.00000000000;2576.00000000000;2741.00000000000;2713.00000000000;2693.00000000000;2689.00000000000;2768.00000000000;2786.00000000000;2710.00000000000;2754.00000000000;2796.00000000000;2696.00000000000;2641.00000000000;2621.00000000000;2637.00000000000;2554.00000000000;2470.00000000000;2393.00000000000;2359.00000000000;2320.00000000000;2257.00000000000;2173.00000000000;2098.00000000000;2017.00000000000;1955.00000000000;1913.00000000000;1905.00000000000;1894.00000000000;1832.00000000000;1788.00000000000;1768.00000000000;1716.00000000000;1708.00000000000;1747.00000000000;1767.00000000000;1704.00000000000;1581.00000000000;1506.00000000000;1500.00000000000;1520.00000000000;1558.00000000000;1487.00000000000;1511.00000000000;1514.00000000000;1524.00000000000;1585.00000000000;1576.00000000000;1564.00000000000;1654.00000000000;1702.00000000000;1645.00000000000;1819.00000000000;1813.00000000000;1836.00000000000;1897.00000000000;2035.00000000000;2292.00000000000;2450.00000000000;2454.00000000000;2454.00000000000;2748.00000000000;2837.00000000000;2697.00000000000;2724.00000000000;2772.00000000000;2900.00000000000;2905.00000000000;2926.00000000000;2855.00000000000;2833.00000000000;2866.00000000000;2877.00000000000;2832.00000000000;2811.00000000000;2834.00000000000;2785.00000000000;2719.00000000000;2737.00000000000;2763.00000000000;2730.00000000000;2736.00000000000;2719.00000000000;2703.00000000000;2699.00000000000;2674.00000000000;2685.00000000000;2704.00000000000;2687.00000000000;2659.00000000000;2663.00000000000;2638.00000000000;2690.00000000000;2683.00000000000;2673.00000000000;2650.00000000000;2635.00000000000;2646.00000000000;2653.00000000000;2652.00000000000;2642.00000000000;2661.00000000000;2667.00000000000;2683.00000000000;2666.00000000000;2671.00000000000;2695.00000000000;2693.00000000000;2667.00000000000;2695.00000000000;2674.00000000000;2679.00000000000;2680.00000000000;2653.00000000000
