COMMAND 4 SAMPLE 1
Accel X : 1805.00000000000;1797.00000000000;1827.00000000000;1818.00000000000;1795.00000000000;1812.00000000000;1817.00000000000;1843.00000000000;1801.00000000000;1808.00000000000;1804.00000000000;1805.00000000000;1808.00000000000;1807.00000000000;1799.00000000000;1810.00000000000;1809.00000000000;1837.00000000000;1833.00000000000;1800.00000000000;1802.00000000000;1806.00000000000;1809.00000000000;1815.00000000000;1834.00000000000;1822.00000000000;1830.00000000000;1820.00000000000;1807.00000000000;1852.00000000000;1834.00000000000;1814.00000000000;1846.00000000000;1819.00000000000;1828.00000000000;1816.00000000000;1816.00000000000;1818.00000000000;1831.00000000000;1897.00000000000;1925.00000000000;1882.00000000000;1854.00000000000;1895.00000000000;1922.00000000000;1899.00000000000;1886.00000000000;1968.00000000000;2050.00000000000;2006.00000000000;1992.00000000000;1994.00000000000;2069.00000000000;2116.00000000000;2118.00000000000;2074.00000000000;2036.00000000000;2085.00000000000;2201.00000000000;2218.00000000000;2130.00000000000;2069.00000000000;2138.00000000000;2203.00000000000;2236.00000000000;2229.00000000000;2197.00000000000;2175.00000000000;2202.00000000000;2210.00000000000;2184.00000000000;2155.00000000000;2108.00000000000;2140.00000000000;2159.00000000000;2171.00000000000;2152.00000000000;2087.00000000000;2115.00000000000;2113.00000000000;2160.00000000000;2153.00000000000;2151.00000000000;2123.00000000000;2145.00000000000;2125.00000000000;2178.00000000000;2144.00000000000;2112.00000000000;2158.00000000000;2204.00000000000;2208.00000000000;2186.00000000000;2216.00000000000;2227.00000000000;2232.00000000000;2197.00000000000;2217.00000000000;2211.00000000000;2174.00000000000;2200.00000000000;2215.00000000000;2194.00000000000;2152.00000000000;2201.00000000000;2155.00000000000;2131.00000000000;2124.00000000000;2077.00000000000;2055.00000000000;2002.00000000000;1961.00000000000;2003.00000000000;2019.00000000000;1921.00000000000;1863.00000000000;1840.00000000000;1861.00000000000;1818.00000000000;1767.00000000000;1860.00000000000;1888.00000000000;1825.00000000000;1845.00000000000;1821.00000000000;1780.00000000000;1741.00000000000;1796.00000000000;1806.00000000000;1769.00000000000;1717.00000000000;1698.00000000000;1701.00000000000;1740.00000000000;1774.00000000000;1780.00000000000;1777.00000000000;1755.00000000000;1780.00000000000;1791.00000000000;1824.00000000000;1807.00000000000;1767.00000000000;1817.00000000000;1794.00000000000;1779.00000000000;1840.00000000000;1780.00000000000;1756.00000000000;1807.00000000000
Accel Y : 2047.00000000000;2035.00000000000;2057.00000000000;2046.00000000000;2048.00000000000;2055.00000000000;2048.00000000000;2069.00000000000;2056.00000000000;2085.00000000000;2055.00000000000;2053.00000000000;2059.00000000000;2039.00000000000;2049.00000000000;2052.00000000000;2051.00000000000;2050.00000000000;2040.00000000000;2043.00000000000;2047.00000000000;2036.00000000000;2024.00000000000;2013.00000000000;2044.00000000000;2044.00000000000;2019.00000000000;2044.00000000000;2035.00000000000;2040.00000000000;2051.00000000000;2008.00000000000;2016.00000000000;2001.00000000000;1987.00000000000;2005.00000000000;2054.00000000000;2051.00000000000;2048.00000000000;2069.00000000000;2089.00000000000;2146.00000000000;2163.00000000000;2178.00000000000;2262.00000000000;2311.00000000000;2381.00000000000;2392.00000000000;2524.00000000000;2625.00000000000;2653.00000000000;2698.00000000000;2728.00000000000;2829.00000000000;2841.00000000000;2903.00000000000;2999.00000000000;3019.00000000000;2974.00000000000;3017.00000000000;3059.00000000000;3082.00000000000;3116.00000000000;3114.00000000000;3113.00000000000;3129.00000000000;3152.00000000000;3194.00000000000;3174.00000000000;3095.00000000000;3096.00000000000;3106.00000000000;3105.00000000000;3092.00000000000;3052.00000000000;3063.00000000000;3045.00000000000;3058.00000000000;3048.00000000000;3069.00000000000;3087.00000000000;3122.00000000000;3092.00000000000;3115.00000000000;3097.00000000000;3091.00000000000;3125.00000000000;3113.00000000000;3143.00000000000;3183.00000000000;3205.00000000000;3236.00000000000;3235.00000000000;3247.00000000000;3317.00000000000;3324.00000000000;3298.00000000000;3287.00000000000;3293.00000000000;3259.00000000000;3216.00000000000;3162.00000000000;3134.00000000000;3071.00000000000;3023.00000000000;2926.00000000000;2845.00000000000;2751.00000000000;2651.00000000000;2602.00000000000;2523.00000000000;2431.00000000000;2354.00000000000;2285.00000000000;2233.00000000000;2187.00000000000;2097.00000000000;2063.00000000000;2055.00000000000;2011.00000000000;1980.00000000000;1975.00000000000;1948.00000000000;1906.00000000000;1922.00000000000;1915.00000000000;1899.00000000000;1876.00000000000;1894.00000000000;1892.00000000000;1902.00000000000;1896.00000000000;1870.00000000000;1897.00000000000;1900.00000000000;1917.00000000000;1907.00000000000;1925.00000000000;1939.00000000000;1905.00000000000;1907.00000000000;1932.00000000000;1934.00000000000;1949.00000000000;1946.00000000000;1947.00000000000;1965.00000000000;1956.00000000000;1964.00000000000;1966.00000000000
Accel Z : 2651.00000000000;2664.00000000000;2679.00000000000;2675.00000000000;2681.00000000000;2675.00000000000;2680.00000000000;2666.00000000000;2687.00000000000;2663.00000000000;2652.00000000000;2670.00000000000;2668.00000000000;2670.00000000000;2670.00000000000;2675.00000000000;2664.00000000000;2665.00000000000;2688.00000000000;2649.00000000000;2667.00000000000;2645.00000000000;2660.00000000000;2648.00000000000;2651.00000000000;2655.00000000000;2632.00000000000;2623.00000000000;2627.00000000000;2626.00000000000;2592.00000000000;2553.00000000000;2528.00000000000;2492.00000000000;2459.00000000000;2445.00000000000;2367.00000000000;2264.00000000000;2182.00000000000;2155.00000000000;2146.00000000000;2153.00000000000;2138.00000000000;2143.00000000000;2179.00000000000;2199.00000000000;2247.00000000000;2273.00000000000;2344.00000000000;2399.00000000000;2447.00000000000;2464.00000000000;2464.00000000000;2518.00000000000;2562.00000000000;2555.00000000000;2506.00000000000;2439.00000000000;2473.00000000000;2514.00000000000;2447.00000000000;2370.00000000000;2380.00000000000;2348.00000000000;2339.00000000000;2337.00000000000;2310.00000000000;2338.00000000000;2306.00000000000;2303.00000000000;2322.00000000000;2267.00000000000;2246.00000000000;2191.00000000000;2194.00000000000;2176.00000000000;2156.00000000000;2144.00000000000;2119.00000000000;2135.00000000000;2177.00000000000;2192.00000000000;2241.00000000000;2264.00000000000;2300.00000000000;2311.00000000000;2377.00000000000;2429.00000000000;2419.00000000000;2455.00000000000;2495.00000000000;2492.00000000000;2532.00000000000;2534.00000000000;2555.00000000000;2477.00000000000;2522.00000000000;2507.00000000000;2471.00000000000;2469.00000000000;2439.00000000000;2428.00000000000;2440.00000000000;2456.00000000000;2403.00000000000;2352.00000000000;2297.00000000000;2283.00000000000;2289.00000000000;2255.00000000000;2197.00000000000;2211.00000000000;2183.00000000000;2200.00000000000;2206.00000000000;2163.00000000000;2188.00000000000;2205.00000000000;2231.00000000000;2190.00000000000;2208.00000000000;2240.00000000000;2249.00000000000;2273.00000000000;2324.00000000000;2370.00000000000;2371.00000000000;2430.00000000000;2484.00000000000;2520.00000000000;2535.00000000000;2509.00000000000;2581.00000000000;2594.00000000000;2621.00000000000;2634.00000000000;2607.00000000000;2615.00000000000;2625.00000000000;2641.00000000000;2639.00000000000;2620.00000000000;2651.00000000000;2647.00000000000;2664.00000000000;2664.00000000000;2676.00000000000;2678.00000000000;2688.00000000000;2684.00000000000
Gyro X : 1805.00000000000;1797.00000000000;1827.00000000000;1818.00000000000;1795.00000000000;1812.00000000000;1817.00000000000;1843.00000000000;1801.00000000000;1808.00000000000;1804.00000000000;1805.00000000000;1808.00000000000;1807.00000000000;1799.00000000000;1810.00000000000;1809.00000000000;1837.00000000000;1833.00000000000;1800.00000000000;1802.00000000000;1806.00000000000;1809.00000000000;1815.00000000000;1834.00000000000;1822.00000000000;1830.00000000000;1820.00000000000;1807.00000000000;1852.00000000000;1834.00000000000;1814.00000000000;1846.00000000000;1819.00000000000;1828.00000000000;1816.00000000000;1816.00000000000;1818.00000000000;1831.00000000000;1897.00000000000;1925.00000000000;1882.00000000000;1854.00000000000;1895.00000000000;1922.00000000000;1899.00000000000;1886.00000000000;1968.00000000000;2050.00000000000;2006.00000000000;1992.00000000000;1994.00000000000;2069.00000000000;2116.00000000000;2118.00000000000;2074.00000000000;2036.00000000000;2085.00000000000;2201.00000000000;2218.00000000000;2130.00000000000;2069.00000000000;2138.00000000000;2203.00000000000;2236.00000000000;2229.00000000000;2197.00000000000;2175.00000000000;2202.00000000000;2210.00000000000;2184.00000000000;2155.00000000000;2108.00000000000;2140.00000000000;2159.00000000000;2171.00000000000;2152.00000000000;2087.00000000000;2115.00000000000;2113.00000000000;2160.00000000000;2153.00000000000;2151.00000000000;2123.00000000000;2145.00000000000;2125.00000000000;2178.00000000000;2144.00000000000;2112.00000000000;2158.00000000000;2204.00000000000;2208.00000000000;2186.00000000000;2216.00000000000;2227.00000000000;2232.00000000000;2197.00000000000;2217.00000000000;2211.00000000000;2174.00000000000;2200.00000000000;2215.00000000000;2194.00000000000;2152.00000000000;2201.00000000000;2155.00000000000;2131.00000000000;2124.00000000000;2077.00000000000;2055.00000000000;2002.00000000000;1961.00000000000;2003.00000000000;2019.00000000000;1921.00000000000;1863.00000000000;1840.00000000000;1861.00000000000;1818.00000000000;1767.00000000000;1860.00000000000;1888.00000000000;1825.00000000000;1845.00000000000;1821.00000000000;1780.00000000000;1741.00000000000;1796.00000000000;1806.00000000000;1769.00000000000;1717.00000000000;1698.00000000000;1701.00000000000;1740.00000000000;1774.00000000000;1780.00000000000;1777.00000000000;1755.00000000000;1780.00000000000;1791.00000000000;1824.00000000000;1807.00000000000;1767.00000000000;1817.00000000000;1794.00000000000;1779.00000000000;1840.00000000000;1780.00000000000;1756.00000000000;1807.00000000000
Gyro Y : 2047.00000000000;2035.00000000000;2057.00000000000;2046.00000000000;2048.00000000000;2055.00000000000;2048.00000000000;2069.00000000000;2056.00000000000;2085.00000000000;2055.00000000000;2053.00000000000;2059.00000000000;2039.00000000000;2049.00000000000;2052.00000000000;2051.00000000000;2050.00000000000;2040.00000000000;2043.00000000000;2047.00000000000;2036.00000000000;2024.00000000000;2013.00000000000;2044.00000000000;2044.00000000000;2019.00000000000;2044.00000000000;2035.00000000000;2040.00000000000;2051.00000000000;2008.00000000000;2016.00000000000;2001.00000000000;1987.00000000000;2005.00000000000;2054.00000000000;2051.00000000000;2048.00000000000;2069.00000000000;2089.00000000000;2146.00000000000;2163.00000000000;2178.00000000000;2262.00000000000;2311.00000000000;2381.00000000000;2392.00000000000;2524.00000000000;2625.00000000000;2653.00000000000;2698.00000000000;2728.00000000000;2829.00000000000;2841.00000000000;2903.00000000000;2999.00000000000;3019.00000000000;2974.00000000000;3017.00000000000;3059.00000000000;3082.00000000000;3116.00000000000;3114.00000000000;3113.00000000000;3129.00000000000;3152.00000000000;3194.00000000000;3174.00000000000;3095.00000000000;3096.00000000000;3106.00000000000;3105.00000000000;3092.00000000000;3052.00000000000;3063.00000000000;3045.00000000000;3058.00000000000;3048.00000000000;3069.00000000000;3087.00000000000;3122.00000000000;3092.00000000000;3115.00000000000;3097.00000000000;3091.00000000000;3125.00000000000;3113.00000000000;3143.00000000000;3183.00000000000;3205.00000000000;3236.00000000000;3235.00000000000;3247.00000000000;3317.00000000000;3324.00000000000;3298.00000000000;3287.00000000000;3293.00000000000;3259.00000000000;3216.00000000000;3162.00000000000;3134.00000000000;3071.00000000000;3023.00000000000;2926.00000000000;2845.00000000000;2751.00000000000;2651.00000000000;2602.00000000000;2523.00000000000;2431.00000000000;2354.00000000000;2285.00000000000;2233.00000000000;2187.00000000000;2097.00000000000;2063.00000000000;2055.00000000000;2011.00000000000;1980.00000000000;1975.00000000000;1948.00000000000;1906.00000000000;1922.00000000000;1915.00000000000;1899.00000000000;1876.00000000000;1894.00000000000;1892.00000000000;1902.00000000000;1896.00000000000;1870.00000000000;1897.00000000000;1900.00000000000;1917.00000000000;1907.00000000000;1925.00000000000;1939.00000000000;1905.00000000000;1907.00000000000;1932.00000000000;1934.00000000000;1949.00000000000;1946.00000000000;1947.00000000000;1965.00000000000;1956.00000000000;1964.00000000000;1966.00000000000
Gyro Z : 2651.00000000000;2664.00000000000;2679.00000000000;2675.00000000000;2681.00000000000;2675.00000000000;2680.00000000000;2666.00000000000;2687.00000000000;2663.00000000000;2652.00000000000;2670.00000000000;2668.00000000000;2670.00000000000;2670.00000000000;2675.00000000000;2664.00000000000;2665.00000000000;2688.00000000000;2649.00000000000;2667.00000000000;2645.00000000000;2660.00000000000;2648.00000000000;2651.00000000000;2655.00000000000;2632.00000000000;2623.00000000000;2627.00000000000;2626.00000000000;2592.00000000000;2553.00000000000;2528.00000000000;2492.00000000000;2459.00000000000;2445.00000000000;2367.00000000000;2264.00000000000;2182.00000000000;2155.00000000000;2146.00000000000;2153.00000000000;2138.00000000000;2143.00000000000;2179.00000000000;2199.00000000000;2247.00000000000;2273.00000000000;2344.00000000000;2399.00000000000;2447.00000000000;2464.00000000000;2464.00000000000;2518.00000000000;2562.00000000000;2555.00000000000;2506.00000000000;2439.00000000000;2473.00000000000;2514.00000000000;2447.00000000000;2370.00000000000;2380.00000000000;2348.00000000000;2339.00000000000;2337.00000000000;2310.00000000000;2338.00000000000;2306.00000000000;2303.00000000000;2322.00000000000;2267.00000000000;2246.00000000000;2191.00000000000;2194.00000000000;2176.00000000000;2156.00000000000;2144.00000000000;2119.00000000000;2135.00000000000;2177.00000000000;2192.00000000000;2241.00000000000;2264.00000000000;2300.00000000000;2311.00000000000;2377.00000000000;2429.00000000000;2419.00000000000;2455.00000000000;2495.00000000000;2492.00000000000;2532.00000000000;2534.00000000000;2555.00000000000;2477.00000000000;2522.00000000000;2507.00000000000;2471.00000000000;2469.00000000000;2439.00000000000;2428.00000000000;2440.00000000000;2456.00000000000;2403.00000000000;2352.00000000000;2297.00000000000;2283.00000000000;2289.00000000000;2255.00000000000;2197.00000000000;2211.00000000000;2183.00000000000;2200.00000000000;2206.00000000000;2163.00000000000;2188.00000000000;2205.00000000000;2231.00000000000;2190.00000000000;2208.00000000000;2240.00000000000;2249.00000000000;2273.00000000000;2324.00000000000;2370.00000000000;2371.00000000000;2430.00000000000;2484.00000000000;2520.00000000000;2535.00000000000;2509.00000000000;2581.00000000000;2594.00000000000;2621.00000000000;2634.00000000000;2607.00000000000;2615.00000000000;2625.00000000000;2641.00000000000;2639.00000000000;2620.00000000000;2651.00000000000;2647.00000000000;2664.00000000000;2664.00000000000;2676.00000000000;2678.00000000000;2688.00000000000;2684.00000000000
