COMMAND 2 SAMPLE 1
Accel X : 1832.00000000000;1873.00000000000;1855.00000000000;1826.00000000000;1840.00000000000;1812.00000000000;1812.00000000000;1844.00000000000;1838.00000000000;1830.00000000000;1838.00000000000;1826.00000000000;1848.00000000000;1849.00000000000;1819.00000000000;1816.00000000000;1800.00000000000;1786.00000000000;1783.00000000000;1736.00000000000;1678.00000000000;1674.00000000000;1674.00000000000;1628.00000000000;1605.00000000000;1638.00000000000;1664.00000000000;1606.00000000000;1614.00000000000;1631.00000000000;1813.00000000000;1866.00000000000;1948.00000000000;2043.00000000000;2093.00000000000;2177.00000000000;2194.00000000000;2179.00000000000;2211.00000000000;2286.00000000000;2311.00000000000;2389.00000000000;2365.00000000000;2411.00000000000;2507.00000000000;2576.00000000000;2543.00000000000;2604.00000000000;2707.00000000000;2728.00000000000;2757.00000000000;2819.00000000000;2912.00000000000;2932.00000000000;2919.00000000000;2969.00000000000;3006.00000000000;2996.00000000000;2989.00000000000;3043.00000000000;3030.00000000000;3036.00000000000;3108.00000000000;3086.00000000000;3063.00000000000;3035.00000000000;2961.00000000000;2937.00000000000;2975.00000000000;2934.00000000000;2925.00000000000;2924.00000000000;2928.00000000000;2914.00000000000;2940.00000000000;3002.00000000000;3035.00000000000;3024.00000000000;3114.00000000000;3098.00000000000;3111.00000000000;3136.00000000000;3130.00000000000;3122.00000000000;3113.00000000000;3094.00000000000;3071.00000000000;3058.00000000000;3041.00000000000;3047.00000000000;3045.00000000000;3003.00000000000;2981.00000000000;2952.00000000000;2917.00000000000;2888.00000000000;2882.00000000000;2859.00000000000;2791.00000000000;2701.00000000000;2639.00000000000;2610.00000000000;2571.00000000000;2488.00000000000;2392.00000000000;2288.00000000000;2155.00000000000;2037.00000000000;1922.00000000000;1849.00000000000;1840.00000000000;1803.00000000000;1763.00000000000;1696.00000000000;1591.00000000000;1546.00000000000;1573.00000000000;1544.00000000000;1559.00000000000;1560.00000000000;1572.00000000000;1543.00000000000;1501.00000000000;1564.00000000000;1612.00000000000;1621.00000000000;1600.00000000000;1630.00000000000;1644.00000000000;1673.00000000000;1708.00000000000;1706.00000000000;1708.00000000000;1704.00000000000;1733.00000000000;1751.00000000000;1747.00000000000;1771.00000000000;1785.00000000000;1747.00000000000;1747.00000000000;1760.00000000000;1777.00000000000;1772.00000000000;1762.00000000000;1793.00000000000;1827.00000000000;1774.00000000000;1796.00000000000;1781.00000000000
Accel Y : 2098.00000000000;2080.00000000000;2095.00000000000;2094.00000000000;2090.00000000000;2096.00000000000;2124.00000000000;2092.00000000000;2095.00000000000;2099.00000000000;2130.00000000000;2100.00000000000;2113.00000000000;2108.00000000000;2107.00000000000;2100.00000000000;2106.00000000000;2136.00000000000;2149.00000000000;2172.00000000000;2151.00000000000;2172.00000000000;2178.00000000000;2230.00000000000;2246.00000000000;2284.00000000000;2287.00000000000;2267.00000000000;2269.00000000000;2254.00000000000;2233.00000000000;2237.00000000000;2258.00000000000;2237.00000000000;2244.00000000000;2244.00000000000;2246.00000000000;2245.00000000000;2252.00000000000;2261.00000000000;2253.00000000000;2277.00000000000;2256.00000000000;2279.00000000000;2272.00000000000;2262.00000000000;2251.00000000000;2229.00000000000;2224.00000000000;2222.00000000000;2164.00000000000;2102.00000000000;2093.00000000000;2043.00000000000;1980.00000000000;1951.00000000000;1979.00000000000;1929.00000000000;1845.00000000000;1862.00000000000;1849.00000000000;1862.00000000000;1827.00000000000;1813.00000000000;1817.00000000000;1812.00000000000;1801.00000000000;1798.00000000000;1783.00000000000;1799.00000000000;1806.00000000000;1751.00000000000;1769.00000000000;1757.00000000000;1723.00000000000;1755.00000000000;1761.00000000000;1812.00000000000;1791.00000000000;1828.00000000000;1834.00000000000;1859.00000000000;1891.00000000000;1909.00000000000;1921.00000000000;1973.00000000000;1987.00000000000;2022.00000000000;2049.00000000000;2064.00000000000;2084.00000000000;2118.00000000000;2128.00000000000;2181.00000000000;2210.00000000000;2211.00000000000;2233.00000000000;2247.00000000000;2307.00000000000;2322.00000000000;2329.00000000000;2316.00000000000;2318.00000000000;2329.00000000000;2322.00000000000;2275.00000000000;2233.00000000000;2219.00000000000;2249.00000000000;2229.00000000000;2194.00000000000;2224.00000000000;2254.00000000000;2248.00000000000;2246.00000000000;2194.00000000000;2215.00000000000;2253.00000000000;2229.00000000000;2202.00000000000;2186.00000000000;2200.00000000000;2185.00000000000;2154.00000000000;2170.00000000000;2166.00000000000;2175.00000000000;2152.00000000000;2165.00000000000;2144.00000000000;2147.00000000000;2151.00000000000;2115.00000000000;2113.00000000000;2113.00000000000;2125.00000000000;2122.00000000000;2100.00000000000;2098.00000000000;2090.00000000000;2076.00000000000;2112.00000000000;2080.00000000000;2072.00000000000;2068.00000000000;2078.00000000000;2085.00000000000;2079.00000000000;2079.00000000000;2091.00000000000
Accel Z : 2673.00000000000;2665.00000000000;2694.00000000000;2699.00000000000;2667.00000000000;2689.00000000000;2660.00000000000;2702.00000000000;2710.00000000000;2709.00000000000;2695.00000000000;2690.00000000000;2657.00000000000;2699.00000000000;2670.00000000000;2696.00000000000;2709.00000000000;2684.00000000000;2688.00000000000;2697.00000000000;2681.00000000000;2688.00000000000;2737.00000000000;2750.00000000000;2773.00000000000;2801.00000000000;2803.00000000000;2790.00000000000;2774.00000000000;2768.00000000000;2765.00000000000;2774.00000000000;2750.00000000000;2735.00000000000;2723.00000000000;2705.00000000000;2684.00000000000;2637.00000000000;2596.00000000000;2560.00000000000;2521.00000000000;2473.00000000000;2433.00000000000;2370.00000000000;2358.00000000000;2305.00000000000;2217.00000000000;2156.00000000000;2159.00000000000;2057.00000000000;1963.00000000000;1925.00000000000;1869.00000000000;1754.00000000000;1720.00000000000;1698.00000000000;1719.00000000000;1657.00000000000;1600.00000000000;1627.00000000000;1668.00000000000;1663.00000000000;1654.00000000000;1652.00000000000;1655.00000000000;1629.00000000000;1653.00000000000;1629.00000000000;1611.00000000000;1641.00000000000;1627.00000000000;1623.00000000000;1621.00000000000;1616.00000000000;1609.00000000000;1612.00000000000;1616.00000000000;1615.00000000000;1618.00000000000;1579.00000000000;1595.00000000000;1592.00000000000;1622.00000000000;1593.00000000000;1626.00000000000;1663.00000000000;1696.00000000000;1726.00000000000;1746.00000000000;1757.00000000000;1794.00000000000;1868.00000000000;1871.00000000000;1943.00000000000;1987.00000000000;2042.00000000000;2088.00000000000;2145.00000000000;2165.00000000000;2228.00000000000;2309.00000000000;2383.00000000000;2447.00000000000;2471.00000000000;2492.00000000000;2538.00000000000;2535.00000000000;2520.00000000000;2578.00000000000;2615.00000000000;2603.00000000000;2626.00000000000;2666.00000000000;2646.00000000000;2607.00000000000;2594.00000000000;2661.00000000000;2669.00000000000;2671.00000000000;2696.00000000000;2676.00000000000;2651.00000000000;2645.00000000000;2647.00000000000;2656.00000000000;2676.00000000000;2668.00000000000;2672.00000000000;2669.00000000000;2651.00000000000;2667.00000000000;2663.00000000000;2661.00000000000;2668.00000000000;2658.00000000000;2659.00000000000;2660.00000000000;2671.00000000000;2657.00000000000;2702.00000000000;2679.00000000000;2655.00000000000;2669.00000000000;2690.00000000000;2685.00000000000;2682.00000000000;2671.00000000000;2679.00000000000;2669.00000000000;2645.00000000000
Gyro X : 1832.00000000000;1873.00000000000;1855.00000000000;1826.00000000000;1840.00000000000;1812.00000000000;1812.00000000000;1844.00000000000;1838.00000000000;1830.00000000000;1838.00000000000;1826.00000000000;1848.00000000000;1849.00000000000;1819.00000000000;1816.00000000000;1800.00000000000;1786.00000000000;1783.00000000000;1736.00000000000;1678.00000000000;1674.00000000000;1674.00000000000;1628.00000000000;1605.00000000000;1638.00000000000;1664.00000000000;1606.00000000000;1614.00000000000;1631.00000000000;1813.00000000000;1866.00000000000;1948.00000000000;2043.00000000000;2093.00000000000;2177.00000000000;2194.00000000000;2179.00000000000;2211.00000000000;2286.00000000000;2311.00000000000;2389.00000000000;2365.00000000000;2411.00000000000;2507.00000000000;2576.00000000000;2543.00000000000;2604.00000000000;2707.00000000000;2728.00000000000;2757.00000000000;2819.00000000000;2912.00000000000;2932.00000000000;2919.00000000000;2969.00000000000;3006.00000000000;2996.00000000000;2989.00000000000;3043.00000000000;3030.00000000000;3036.00000000000;3108.00000000000;3086.00000000000;3063.00000000000;3035.00000000000;2961.00000000000;2937.00000000000;2975.00000000000;2934.00000000000;2925.00000000000;2924.00000000000;2928.00000000000;2914.00000000000;2940.00000000000;3002.00000000000;3035.00000000000;3024.00000000000;3114.00000000000;3098.00000000000;3111.00000000000;3136.00000000000;3130.00000000000;3122.00000000000;3113.00000000000;3094.00000000000;3071.00000000000;3058.00000000000;3041.00000000000;3047.00000000000;3045.00000000000;3003.00000000000;2981.00000000000;2952.00000000000;2917.00000000000;2888.00000000000;2882.00000000000;2859.00000000000;2791.00000000000;2701.00000000000;2639.00000000000;2610.00000000000;2571.00000000000;2488.00000000000;2392.00000000000;2288.00000000000;2155.00000000000;2037.00000000000;1922.00000000000;1849.00000000000;1840.00000000000;1803.00000000000;1763.00000000000;1696.00000000000;1591.00000000000;1546.00000000000;1573.00000000000;1544.00000000000;1559.00000000000;1560.00000000000;1572.00000000000;1543.00000000000;1501.00000000000;1564.00000000000;1612.00000000000;1621.00000000000;1600.00000000000;1630.00000000000;1644.00000000000;1673.00000000000;1708.00000000000;1706.00000000000;1708.00000000000;1704.00000000000;1733.00000000000;1751.00000000000;1747.00000000000;1771.00000000000;1785.00000000000;1747.00000000000;1747.00000000000;1760.00000000000;1777.00000000000;1772.00000000000;1762.00000000000;1793.00000000000;1827.00000000000;1774.00000000000;1796.00000000000;1781.00000000000
Gyro Y : 2098.00000000000;2080.00000000000;2095.00000000000;2094.00000000000;2090.00000000000;2096.00000000000;2124.00000000000;2092.00000000000;2095.00000000000;2099.00000000000;2130.00000000000;2100.00000000000;2113.00000000000;2108.00000000000;2107.00000000000;2100.00000000000;2106.00000000000;2136.00000000000;2149.00000000000;2172.00000000000;2151.00000000000;2172.00000000000;2178.00000000000;2230.00000000000;2246.00000000000;2284.00000000000;2287.00000000000;2267.00000000000;2269.00000000000;2254.00000000000;2233.00000000000;2237.00000000000;2258.00000000000;2237.00000000000;2244.00000000000;2244.00000000000;2246.00000000000;2245.00000000000;2252.00000000000;2261.00000000000;2253.00000000000;2277.00000000000;2256.00000000000;2279.00000000000;2272.00000000000;2262.00000000000;2251.00000000000;2229.00000000000;2224.00000000000;2222.00000000000;2164.00000000000;2102.00000000000;2093.00000000000;2043.00000000000;1980.00000000000;1951.00000000000;1979.00000000000;1929.00000000000;1845.00000000000;1862.00000000000;1849.00000000000;1862.00000000000;1827.00000000000;1813.00000000000;1817.00000000000;1812.00000000000;1801.00000000000;1798.00000000000;1783.00000000000;1799.00000000000;1806.00000000000;1751.00000000000;1769.00000000000;1757.00000000000;1723.00000000000;1755.00000000000;1761.00000000000;1812.00000000000;1791.00000000000;1828.00000000000;1834.00000000000;1859.00000000000;1891.00000000000;1909.00000000000;1921.00000000000;1973.00000000000;1987.00000000000;2022.00000000000;2049.00000000000;2064.00000000000;2084.00000000000;2118.00000000000;2128.00000000000;2181.00000000000;2210.00000000000;2211.00000000000;2233.00000000000;2247.00000000000;2307.00000000000;2322.00000000000;2329.00000000000;2316.00000000000;2318.00000000000;2329.00000000000;2322.00000000000;2275.00000000000;2233.00000000000;2219.00000000000;2249.00000000000;2229.00000000000;2194.00000000000;2224.00000000000;2254.00000000000;2248.00000000000;2246.00000000000;2194.00000000000;2215.00000000000;2253.00000000000;2229.00000000000;2202.00000000000;2186.00000000000;2200.00000000000;2185.00000000000;2154.00000000000;2170.00000000000;2166.00000000000;2175.00000000000;2152.00000000000;2165.00000000000;2144.00000000000;2147.00000000000;2151.00000000000;2115.00000000000;2113.00000000000;2113.00000000000;2125.00000000000;2122.00000000000;2100.00000000000;2098.00000000000;2090.00000000000;2076.00000000000;2112.00000000000;2080.00000000000;2072.00000000000;2068.00000000000;2078.00000000000;2085.00000000000;2079.00000000000;2079.00000000000;2091.00000000000
Gyro Z : 2673.00000000000;2665.00000000000;2694.00000000000;2699.00000000000;2667.00000000000;2689.00000000000;2660.00000000000;2702.00000000000;2710.00000000000;2709.00000000000;2695.00000000000;2690.00000000000;2657.00000000000;2699.00000000000;2670.00000000000;2696.00000000000;2709.00000000000;2684.00000000000;2688.00000000000;2697.00000000000;2681.00000000000;2688.00000000000;2737.00000000000;2750.00000000000;2773.00000000000;2801.00000000000;2803.00000000000;2790.00000000000;2774.00000000000;2768.00000000000;2765.00000000000;2774.00000000000;2750.00000000000;2735.00000000000;2723.00000000000;2705.00000000000;2684.00000000000;2637.00000000000;2596.00000000000;2560.00000000000;2521.00000000000;2473.00000000000;2433.00000000000;2370.00000000000;2358.00000000000;2305.00000000000;2217.00000000000;2156.00000000000;2159.00000000000;2057.00000000000;1963.00000000000;1925.00000000000;1869.00000000000;1754.00000000000;1720.00000000000;1698.00000000000;1719.00000000000;1657.00000000000;1600.00000000000;1627.00000000000;1668.00000000000;1663.00000000000;1654.00000000000;1652.00000000000;1655.00000000000;1629.00000000000;1653.00000000000;1629.00000000000;1611.00000000000;1641.00000000000;1627.00000000000;1623.00000000000;1621.00000000000;1616.00000000000;1609.00000000000;1612.00000000000;1616.00000000000;1615.00000000000;1618.00000000000;1579.00000000000;1595.00000000000;1592.00000000000;1622.00000000000;1593.00000000000;1626.00000000000;1663.00000000000;1696.00000000000;1726.00000000000;1746.00000000000;1757.00000000000;1794.00000000000;1868.00000000000;1871.00000000000;1943.00000000000;1987.00000000000;2042.00000000000;2088.00000000000;2145.00000000000;2165.00000000000;2228.00000000000;2309.00000000000;2383.00000000000;2447.00000000000;2471.00000000000;2492.00000000000;2538.00000000000;2535.00000000000;2520.00000000000;2578.00000000000;2615.00000000000;2603.00000000000;2626.00000000000;2666.00000000000;2646.00000000000;2607.00000000000;2594.00000000000;2661.00000000000;2669.00000000000;2671.00000000000;2696.00000000000;2676.00000000000;2651.00000000000;2645.00000000000;2647.00000000000;2656.00000000000;2676.00000000000;2668.00000000000;2672.00000000000;2669.00000000000;2651.00000000000;2667.00000000000;2663.00000000000;2661.00000000000;2668.00000000000;2658.00000000000;2659.00000000000;2660.00000000000;2671.00000000000;2657.00000000000;2702.00000000000;2679.00000000000;2655.00000000000;2669.00000000000;2690.00000000000;2685.00000000000;2682.00000000000;2671.00000000000;2679.00000000000;2669.00000000000;2645.00000000000
