COMMAND 3 SAMPLE 1
Accel X : 1726.00000000000;1761.00000000000;1773.00000000000;1775.00000000000;1758.00000000000;1779.00000000000;1766.00000000000;1733.00000000000;1791.00000000000;1808.00000000000;1767.00000000000;1748.00000000000;1785.00000000000;1791.00000000000;1785.00000000000;1785.00000000000;1784.00000000000;1780.00000000000;1793.00000000000;1782.00000000000;1779.00000000000;1780.00000000000;1794.00000000000;1788.00000000000;1800.00000000000;1789.00000000000;1812.00000000000;1801.00000000000;1773.00000000000;1769.00000000000;1748.00000000000;1754.00000000000;1734.00000000000;1796.00000000000;2041.00000000000;2286.00000000000;2590.00000000000;2765.00000000000;2904.00000000000;3124.00000000000;3237.00000000000;3252.00000000000;3352.00000000000;3505.00000000000;3582.00000000000;3546.00000000000;3450.00000000000;3432.00000000000;3387.00000000000;3276.00000000000;3241.00000000000;3089.00000000000;2931.00000000000;2884.00000000000;2839.00000000000;2698.00000000000;2639.00000000000;2556.00000000000;2437.00000000000;2358.00000000000;2284.00000000000;2273.00000000000;2193.00000000000;2111.00000000000;2077.00000000000;2071.00000000000;1962.00000000000;1908.00000000000;1941.00000000000;1859.00000000000;1723.00000000000;1725.00000000000;1651.00000000000;1604.00000000000;1586.00000000000;1473.00000000000;1290.00000000000;1449.00000000000;1469.00000000000;1541.00000000000;1531.00000000000;1416.00000000000;1519.00000000000;1652.00000000000;1627.00000000000;1697.00000000000;1655.00000000000;1619.00000000000;1672.00000000000;1776.00000000000;1801.00000000000;1698.00000000000;1634.00000000000;1757.00000000000;1802.00000000000;1851.00000000000;1765.00000000000;1784.00000000000;1846.00000000000;1967.00000000000;2071.00000000000;2087.00000000000;2074.00000000000;2014.00000000000;1990.00000000000;1999.00000000000;2056.00000000000;2088.00000000000;2036.00000000000;1952.00000000000;2027.00000000000;2000.00000000000;1995.00000000000;1985.00000000000;1976.00000000000;1922.00000000000;1907.00000000000;1885.00000000000;1870.00000000000;1858.00000000000;1854.00000000000;1852.00000000000;1847.00000000000;1907.00000000000;1923.00000000000;1912.00000000000;1917.00000000000;1887.00000000000;1925.00000000000;1943.00000000000;1923.00000000000;1915.00000000000;1925.00000000000;1928.00000000000;1916.00000000000;1911.00000000000;1912.00000000000;1886.00000000000;1890.00000000000;1892.00000000000;1911.00000000000;1902.00000000000;1878.00000000000;1858.00000000000;1891.00000000000;1885.00000000000;1847.00000000000;1871.00000000000;1885.00000000000;1899.00000000000
Accel Y : 2019.00000000000;2024.00000000000;2014.00000000000;2019.00000000000;2018.00000000000;2013.00000000000;1990.00000000000;2030.00000000000;2008.00000000000;2019.00000000000;2026.00000000000;2053.00000000000;2028.00000000000;2025.00000000000;2031.00000000000;2032.00000000000;2029.00000000000;2023.00000000000;2016.00000000000;2027.00000000000;2037.00000000000;2024.00000000000;2028.00000000000;2031.00000000000;2039.00000000000;2041.00000000000;2034.00000000000;2025.00000000000;2033.00000000000;2039.00000000000;2012.00000000000;2022.00000000000;2027.00000000000;2020.00000000000;2066.00000000000;2046.00000000000;2044.00000000000;2028.00000000000;2019.00000000000;1943.00000000000;1954.00000000000;1903.00000000000;1861.00000000000;1793.00000000000;1742.00000000000;1747.00000000000;1711.00000000000;1665.00000000000;1641.00000000000;1628.00000000000;1593.00000000000;1618.00000000000;1599.00000000000;1605.00000000000;1575.00000000000;1585.00000000000;1563.00000000000;1558.00000000000;1536.00000000000;1548.00000000000;1480.00000000000;1438.00000000000;1417.00000000000;1401.00000000000;1417.00000000000;1385.00000000000;1437.00000000000;1402.00000000000;1408.00000000000;1420.00000000000;1452.00000000000;1401.00000000000;1389.00000000000;1385.00000000000;1353.00000000000;1277.00000000000;1296.00000000000;1320.00000000000;1298.00000000000;1283.00000000000;1257.00000000000;1281.00000000000;1274.00000000000;1267.00000000000;1241.00000000000;1223.00000000000;1200.00000000000;1186.00000000000;1221.00000000000;1272.00000000000;1299.00000000000;1278.00000000000;1147.00000000000;1215.00000000000;1277.00000000000;1348.00000000000;1365.00000000000;1351.00000000000;1355.00000000000;1435.00000000000;1528.00000000000;1580.00000000000;1695.00000000000;1688.00000000000;1754.00000000000;1883.00000000000;1982.00000000000;2107.00000000000;2148.00000000000;2141.00000000000;2234.00000000000;2319.00000000000;2247.00000000000;2262.00000000000;2334.00000000000;2325.00000000000;2306.00000000000;2301.00000000000;2324.00000000000;2291.00000000000;2302.00000000000;2282.00000000000;2282.00000000000;2265.00000000000;2244.00000000000;2273.00000000000;2273.00000000000;2255.00000000000;2254.00000000000;2272.00000000000;2260.00000000000;2224.00000000000;2228.00000000000;2230.00000000000;2253.00000000000;2218.00000000000;2225.00000000000;2220.00000000000;2232.00000000000;2213.00000000000;2191.00000000000;2213.00000000000;2196.00000000000;2194.00000000000;2223.00000000000;2222.00000000000;2212.00000000000;2228.00000000000;2213.00000000000;2182.00000000000
Accel Z : 2618.00000000000;2626.00000000000;2620.00000000000;2609.00000000000;2598.00000000000;2650.00000000000;2662.00000000000;2619.00000000000;2618.00000000000;2660.00000000000;2663.00000000000;2658.00000000000;2654.00000000000;2664.00000000000;2647.00000000000;2660.00000000000;2660.00000000000;2648.00000000000;2639.00000000000;2666.00000000000;2635.00000000000;2637.00000000000;2660.00000000000;2646.00000000000;2642.00000000000;2626.00000000000;2634.00000000000;2610.00000000000;2597.00000000000;2578.00000000000;2575.00000000000;2558.00000000000;2554.00000000000;2507.00000000000;2453.00000000000;2406.00000000000;2395.00000000000;2366.00000000000;2229.00000000000;2178.00000000000;2151.00000000000;2038.00000000000;1874.00000000000;1788.00000000000;1734.00000000000;1651.00000000000;1538.00000000000;1437.00000000000;1390.00000000000;1326.00000000000;1282.00000000000;1299.00000000000;1289.00000000000;1288.00000000000;1289.00000000000;1346.00000000000;1382.00000000000;1373.00000000000;1445.00000000000;1489.00000000000;1524.00000000000;1591.00000000000;1628.00000000000;1663.00000000000;1695.00000000000;1741.00000000000;1740.00000000000;1760.00000000000;1774.00000000000;1792.00000000000;1810.00000000000;1881.00000000000;1891.00000000000;1934.00000000000;1973.00000000000;1979.00000000000;1984.00000000000;2058.00000000000;2039.00000000000;2030.00000000000;2025.00000000000;1994.00000000000;2019.00000000000;2014.00000000000;2007.00000000000;2004.00000000000;1950.00000000000;1882.00000000000;1882.00000000000;1853.00000000000;1863.00000000000;1686.00000000000;1645.00000000000;1650.00000000000;1720.00000000000;1694.00000000000;1651.00000000000;1626.00000000000;1646.00000000000;1781.00000000000;1896.00000000000;1932.00000000000;2063.00000000000;2131.00000000000;2201.00000000000;2323.00000000000;2456.00000000000;2578.00000000000;2708.00000000000;2759.00000000000;2880.00000000000;3083.00000000000;3119.00000000000;3148.00000000000;3224.00000000000;3265.00000000000;3252.00000000000;3203.00000000000;3175.00000000000;3076.00000000000;3083.00000000000;3072.00000000000;2967.00000000000;2949.00000000000;2900.00000000000;2897.00000000000;2836.00000000000;2792.00000000000;2783.00000000000;2724.00000000000;2694.00000000000;2660.00000000000;2676.00000000000;2684.00000000000;2641.00000000000;2612.00000000000;2632.00000000000;2629.00000000000;2639.00000000000;2657.00000000000;2630.00000000000;2637.00000000000;2630.00000000000;2639.00000000000;2691.00000000000;2680.00000000000;2695.00000000000;2665.00000000000;2654.00000000000;2655.00000000000
Gyro X : 1726.00000000000;1761.00000000000;1773.00000000000;1775.00000000000;1758.00000000000;1779.00000000000;1766.00000000000;1733.00000000000;1791.00000000000;1808.00000000000;1767.00000000000;1748.00000000000;1785.00000000000;1791.00000000000;1785.00000000000;1785.00000000000;1784.00000000000;1780.00000000000;1793.00000000000;1782.00000000000;1779.00000000000;1780.00000000000;1794.00000000000;1788.00000000000;1800.00000000000;1789.00000000000;1812.00000000000;1801.00000000000;1773.00000000000;1769.00000000000;1748.00000000000;1754.00000000000;1734.00000000000;1796.00000000000;2041.00000000000;2286.00000000000;2590.00000000000;2765.00000000000;2904.00000000000;3124.00000000000;3237.00000000000;3252.00000000000;3352.00000000000;3505.00000000000;3582.00000000000;3546.00000000000;3450.00000000000;3432.00000000000;3387.00000000000;3276.00000000000;3241.00000000000;3089.00000000000;2931.00000000000;2884.00000000000;2839.00000000000;2698.00000000000;2639.00000000000;2556.00000000000;2437.00000000000;2358.00000000000;2284.00000000000;2273.00000000000;2193.00000000000;2111.00000000000;2077.00000000000;2071.00000000000;1962.00000000000;1908.00000000000;1941.00000000000;1859.00000000000;1723.00000000000;1725.00000000000;1651.00000000000;1604.00000000000;1586.00000000000;1473.00000000000;1290.00000000000;1449.00000000000;1469.00000000000;1541.00000000000;1531.00000000000;1416.00000000000;1519.00000000000;1652.00000000000;1627.00000000000;1697.00000000000;1655.00000000000;1619.00000000000;1672.00000000000;1776.00000000000;1801.00000000000;1698.00000000000;1634.00000000000;1757.00000000000;1802.00000000000;1851.00000000000;1765.00000000000;1784.00000000000;1846.00000000000;1967.00000000000;2071.00000000000;2087.00000000000;2074.00000000000;2014.00000000000;1990.00000000000;1999.00000000000;2056.00000000000;2088.00000000000;2036.00000000000;1952.00000000000;2027.00000000000;2000.00000000000;1995.00000000000;1985.00000000000;1976.00000000000;1922.00000000000;1907.00000000000;1885.00000000000;1870.00000000000;1858.00000000000;1854.00000000000;1852.00000000000;1847.00000000000;1907.00000000000;1923.00000000000;1912.00000000000;1917.00000000000;1887.00000000000;1925.00000000000;1943.00000000000;1923.00000000000;1915.00000000000;1925.00000000000;1928.00000000000;1916.00000000000;1911.00000000000;1912.00000000000;1886.00000000000;1890.00000000000;1892.00000000000;1911.00000000000;1902.00000000000;1878.00000000000;1858.00000000000;1891.00000000000;1885.00000000000;1847.00000000000;1871.00000000000;1885.00000000000;1899.00000000000
Gyro Y : 2019.00000000000;2024.00000000000;2014.00000000000;2019.00000000000;2018.00000000000;2013.00000000000;1990.00000000000;2030.00000000000;2008.00000000000;2019.00000000000;2026.00000000000;2053.00000000000;2028.00000000000;2025.00000000000;2031.00000000000;2032.00000000000;2029.00000000000;2023.00000000000;2016.00000000000;2027.00000000000;2037.00000000000;2024.00000000000;2028.00000000000;2031.00000000000;2039.00000000000;2041.00000000000;2034.00000000000;2025.00000000000;2033.00000000000;2039.00000000000;2012.00000000000;2022.00000000000;2027.00000000000;2020.00000000000;2066.00000000000;2046.00000000000;2044.00000000000;2028.00000000000;2019.00000000000;1943.00000000000;1954.00000000000;1903.00000000000;1861.00000000000;1793.00000000000;1742.00000000000;1747.00000000000;1711.00000000000;1665.00000000000;1641.00000000000;1628.00000000000;1593.00000000000;1618.00000000000;1599.00000000000;1605.00000000000;1575.00000000000;1585.00000000000;1563.00000000000;1558.00000000000;1536.00000000000;1548.00000000000;1480.00000000000;1438.00000000000;1417.00000000000;1401.00000000000;1417.00000000000;1385.00000000000;1437.00000000000;1402.00000000000;1408.00000000000;1420.00000000000;1452.00000000000;1401.00000000000;1389.00000000000;1385.00000000000;1353.00000000000;1277.00000000000;1296.00000000000;1320.00000000000;1298.00000000000;1283.00000000000;1257.00000000000;1281.00000000000;1274.00000000000;1267.00000000000;1241.00000000000;1223.00000000000;1200.00000000000;1186.00000000000;1221.00000000000;1272.00000000000;1299.00000000000;1278.00000000000;1147.00000000000;1215.00000000000;1277.00000000000;1348.00000000000;1365.00000000000;1351.00000000000;1355.00000000000;1435.00000000000;1528.00000000000;1580.00000000000;1695.00000000000;1688.00000000000;1754.00000000000;1883.00000000000;1982.00000000000;2107.00000000000;2148.00000000000;2141.00000000000;2234.00000000000;2319.00000000000;2247.00000000000;2262.00000000000;2334.00000000000;2325.00000000000;2306.00000000000;2301.00000000000;2324.00000000000;2291.00000000000;2302.00000000000;2282.00000000000;2282.00000000000;2265.00000000000;2244.00000000000;2273.00000000000;2273.00000000000;2255.00000000000;2254.00000000000;2272.00000000000;2260.00000000000;2224.00000000000;2228.00000000000;2230.00000000000;2253.00000000000;2218.00000000000;2225.00000000000;2220.00000000000;2232.00000000000;2213.00000000000;2191.00000000000;2213.00000000000;2196.00000000000;2194.00000000000;2223.00000000000;2222.00000000000;2212.00000000000;2228.00000000000;2213.00000000000;2182.00000000000
Gyro Z : 2618.00000000000;2626.00000000000;2620.00000000000;2609.00000000000;2598.00000000000;2650.00000000000;2662.00000000000;2619.00000000000;2618.00000000000;2660.00000000000;2663.00000000000;2658.00000000000;2654.00000000000;2664.00000000000;2647.00000000000;2660.00000000000;2660.00000000000;2648.00000000000;2639.00000000000;2666.00000000000;2635.00000000000;2637.00000000000;2660.00000000000;2646.00000000000;2642.00000000000;2626.00000000000;2634.00000000000;2610.00000000000;2597.00000000000;2578.00000000000;2575.00000000000;2558.00000000000;2554.00000000000;2507.00000000000;2453.00000000000;2406.00000000000;2395.00000000000;2366.00000000000;2229.00000000000;2178.00000000000;2151.00000000000;2038.00000000000;1874.00000000000;1788.00000000000;1734.00000000000;1651.00000000000;1538.00000000000;1437.00000000000;1390.00000000000;1326.00000000000;1282.00000000000;1299.00000000000;1289.00000000000;1288.00000000000;1289.00000000000;1346.00000000000;1382.00000000000;1373.00000000000;1445.00000000000;1489.00000000000;1524.00000000000;1591.00000000000;1628.00000000000;1663.00000000000;1695.00000000000;1741.00000000000;1740.00000000000;1760.00000000000;1774.00000000000;1792.00000000000;1810.00000000000;1881.00000000000;1891.00000000000;1934.00000000000;1973.00000000000;1979.00000000000;1984.00000000000;2058.00000000000;2039.00000000000;2030.00000000000;2025.00000000000;1994.00000000000;2019.00000000000;2014.00000000000;2007.00000000000;2004.00000000000;1950.00000000000;1882.00000000000;1882.00000000000;1853.00000000000;1863.00000000000;1686.00000000000;1645.00000000000;1650.00000000000;1720.00000000000;1694.00000000000;1651.00000000000;1626.00000000000;1646.00000000000;1781.00000000000;1896.00000000000;1932.00000000000;2063.00000000000;2131.00000000000;2201.00000000000;2323.00000000000;2456.00000000000;2578.00000000000;2708.00000000000;2759.00000000000;2880.00000000000;3083.00000000000;3119.00000000000;3148.00000000000;3224.00000000000;3265.00000000000;3252.00000000000;3203.00000000000;3175.00000000000;3076.00000000000;3083.00000000000;3072.00000000000;2967.00000000000;2949.00000000000;2900.00000000000;2897.00000000000;2836.00000000000;2792.00000000000;2783.00000000000;2724.00000000000;2694.00000000000;2660.00000000000;2676.00000000000;2684.00000000000;2641.00000000000;2612.00000000000;2632.00000000000;2629.00000000000;2639.00000000000;2657.00000000000;2630.00000000000;2637.00000000000;2630.00000000000;2639.00000000000;2691.00000000000;2680.00000000000;2695.00000000000;2665.00000000000;2654.00000000000;2655.00000000000
