COMMAND 3 SAMPLE 1
Accel X : 1839.00000000000;1849.00000000000;1838.00000000000;1809.00000000000;1823.00000000000;1860.00000000000;1849.00000000000;1839.00000000000;1824.00000000000;1865.00000000000;1871.00000000000;1882.00000000000;1857.00000000000;1870.00000000000;1887.00000000000;1850.00000000000;1844.00000000000;1831.00000000000;1859.00000000000;1874.00000000000;1849.00000000000;1849.00000000000;1857.00000000000;1851.00000000000;1817.00000000000;1831.00000000000;1816.00000000000;1823.00000000000;1831.00000000000;1853.00000000000;1806.00000000000;1704.00000000000;1615.00000000000;1725.00000000000;1932.00000000000;2185.00000000000;2402.00000000000;2595.00000000000;2758.00000000000;2963.00000000000;3136.00000000000;3247.00000000000;3310.00000000000;3415.00000000000;3435.00000000000;3362.00000000000;3334.00000000000;3264.00000000000;3194.00000000000;3189.00000000000;3112.00000000000;2992.00000000000;2867.00000000000;2771.00000000000;2618.00000000000;2535.00000000000;2400.00000000000;2276.00000000000;2183.00000000000;2067.00000000000;2018.00000000000;1885.00000000000;1767.00000000000;1728.00000000000;1682.00000000000;1644.00000000000;1603.00000000000;1535.00000000000;1496.00000000000;1527.00000000000;1504.00000000000;1512.00000000000;1483.00000000000;1507.00000000000;1519.00000000000;1597.00000000000;1621.00000000000;1647.00000000000;1708.00000000000;1732.00000000000;1729.00000000000;1763.00000000000;1759.00000000000;1761.00000000000;1747.00000000000;1751.00000000000;1774.00000000000;1641.00000000000;1621.00000000000;1703.00000000000;1655.00000000000;1575.00000000000;1562.00000000000;1663.00000000000;1724.00000000000;1761.00000000000;1766.00000000000;1747.00000000000;1821.00000000000;1942.00000000000;1991.00000000000;1953.00000000000;1869.00000000000;1819.00000000000;1876.00000000000;1915.00000000000;1873.00000000000;1801.00000000000;1876.00000000000;1930.00000000000;1899.00000000000;1890.00000000000;1913.00000000000;1911.00000000000;1902.00000000000;1824.00000000000;1831.00000000000;1818.00000000000;1801.00000000000;1855.00000000000;1891.00000000000;1945.00000000000;1979.00000000000;1929.00000000000;1905.00000000000;1915.00000000000;1995.00000000000;1950.00000000000;1923.00000000000;1913.00000000000;1942.00000000000;1958.00000000000;1946.00000000000;1935.00000000000;1941.00000000000;1916.00000000000;1910.00000000000;1912.00000000000;1909.00000000000;1883.00000000000;1884.00000000000;1926.00000000000;1887.00000000000;1886.00000000000;1902.00000000000;1892.00000000000;1896.00000000000;1900.00000000000;1906.00000000000;1896.00000000000
Accel Y : 2144.00000000000;2150.00000000000;2145.00000000000;2098.00000000000;2128.00000000000;2147.00000000000;2126.00000000000;2133.00000000000;2167.00000000000;2138.00000000000;2144.00000000000;2121.00000000000;2154.00000000000;2144.00000000000;2150.00000000000;2152.00000000000;2137.00000000000;2168.00000000000;2144.00000000000;2163.00000000000;2146.00000000000;2150.00000000000;2124.00000000000;2138.00000000000;2131.00000000000;2148.00000000000;2160.00000000000;2124.00000000000;2118.00000000000;2125.00000000000;2120.00000000000;2128.00000000000;2126.00000000000;2183.00000000000;2194.00000000000;2171.00000000000;2195.00000000000;2179.00000000000;2112.00000000000;2029.00000000000;2032.00000000000;1945.00000000000;1905.00000000000;1859.00000000000;1860.00000000000;1808.00000000000;1749.00000000000;1728.00000000000;1698.00000000000;1644.00000000000;1648.00000000000;1606.00000000000;1660.00000000000;1627.00000000000;1613.00000000000;1611.00000000000;1616.00000000000;1573.00000000000;1566.00000000000;1596.00000000000;1563.00000000000;1571.00000000000;1550.00000000000;1508.00000000000;1532.00000000000;1426.00000000000;1380.00000000000;1396.00000000000;1376.00000000000;1316.00000000000;1308.00000000000;1319.00000000000;1275.00000000000;1270.00000000000;1235.00000000000;1231.00000000000;1239.00000000000;1210.00000000000;1203.00000000000;1169.00000000000;1153.00000000000;1147.00000000000;1167.00000000000;1161.00000000000;1193.00000000000;1159.00000000000;1156.00000000000;1158.00000000000;1305.00000000000;1336.00000000000;1272.00000000000;1184.00000000000;1168.00000000000;1298.00000000000;1337.00000000000;1387.00000000000;1372.00000000000;1357.00000000000;1472.00000000000;1520.00000000000;1591.00000000000;1668.00000000000;1712.00000000000;1745.00000000000;1866.00000000000;1966.00000000000;1996.00000000000;2044.00000000000;2095.00000000000;2131.00000000000;2169.00000000000;2219.00000000000;2209.00000000000;2233.00000000000;2228.00000000000;2223.00000000000;2243.00000000000;2254.00000000000;2259.00000000000;2223.00000000000;2227.00000000000;2222.00000000000;2207.00000000000;2207.00000000000;2163.00000000000;2167.00000000000;2174.00000000000;2172.00000000000;2171.00000000000;2180.00000000000;2185.00000000000;2166.00000000000;2134.00000000000;2147.00000000000;2131.00000000000;2142.00000000000;2127.00000000000;2127.00000000000;2131.00000000000;2129.00000000000;2109.00000000000;2113.00000000000;2133.00000000000;2136.00000000000;2110.00000000000;2111.00000000000;2149.00000000000;2149.00000000000;2114.00000000000;2119.00000000000
Accel Z : 2672.00000000000;2669.00000000000;2663.00000000000;2678.00000000000;2656.00000000000;2669.00000000000;2681.00000000000;2686.00000000000;2671.00000000000;2658.00000000000;2675.00000000000;2673.00000000000;2647.00000000000;2647.00000000000;2672.00000000000;2668.00000000000;2675.00000000000;2673.00000000000;2688.00000000000;2673.00000000000;2682.00000000000;2658.00000000000;2664.00000000000;2647.00000000000;2637.00000000000;2649.00000000000;2621.00000000000;2645.00000000000;2627.00000000000;2634.00000000000;2625.00000000000;2629.00000000000;2696.00000000000;2771.00000000000;2849.00000000000;2864.00000000000;2893.00000000000;2848.00000000000;2712.00000000000;2524.00000000000;2451.00000000000;2274.00000000000;2146.00000000000;2006.00000000000;1937.00000000000;1828.00000000000;1731.00000000000;1657.00000000000;1589.00000000000;1525.00000000000;1507.00000000000;1492.00000000000;1527.00000000000;1523.00000000000;1555.00000000000;1614.00000000000;1627.00000000000;1650.00000000000;1681.00000000000;1696.00000000000;1730.00000000000;1752.00000000000;1794.00000000000;1767.00000000000;1805.00000000000;1885.00000000000;1896.00000000000;1947.00000000000;1962.00000000000;1934.00000000000;1949.00000000000;2011.00000000000;2061.00000000000;2019.00000000000;2030.00000000000;2031.00000000000;2033.00000000000;2014.00000000000;2003.00000000000;1997.00000000000;1992.00000000000;1999.00000000000;1956.00000000000;1960.00000000000;1913.00000000000;1856.00000000000;1802.00000000000;1751.00000000000;1825.00000000000;1811.00000000000;1706.00000000000;1604.00000000000;1593.00000000000;1698.00000000000;1776.00000000000;1778.00000000000;1707.00000000000;1735.00000000000;1833.00000000000;1954.00000000000;2056.00000000000;2122.00000000000;2164.00000000000;2251.00000000000;2397.00000000000;2519.00000000000;2633.00000000000;2671.00000000000;2716.00000000000;2859.00000000000;2934.00000000000;3004.00000000000;3100.00000000000;3215.00000000000;3238.00000000000;3222.00000000000;3231.00000000000;3221.00000000000;3124.00000000000;3090.00000000000;3060.00000000000;3039.00000000000;2940.00000000000;2879.00000000000;2806.00000000000;2786.00000000000;2777.00000000000;2747.00000000000;2690.00000000000;2671.00000000000;2695.00000000000;2661.00000000000;2680.00000000000;2682.00000000000;2669.00000000000;2661.00000000000;2655.00000000000;2656.00000000000;2688.00000000000;2643.00000000000;2655.00000000000;2664.00000000000;2674.00000000000;2672.00000000000;2670.00000000000;2667.00000000000;2643.00000000000;2649.00000000000;2663.00000000000;2648.00000000000
Gyro X : 1839.00000000000;1849.00000000000;1838.00000000000;1809.00000000000;1823.00000000000;1860.00000000000;1849.00000000000;1839.00000000000;1824.00000000000;1865.00000000000;1871.00000000000;1882.00000000000;1857.00000000000;1870.00000000000;1887.00000000000;1850.00000000000;1844.00000000000;1831.00000000000;1859.00000000000;1874.00000000000;1849.00000000000;1849.00000000000;1857.00000000000;1851.00000000000;1817.00000000000;1831.00000000000;1816.00000000000;1823.00000000000;1831.00000000000;1853.00000000000;1806.00000000000;1704.00000000000;1615.00000000000;1725.00000000000;1932.00000000000;2185.00000000000;2402.00000000000;2595.00000000000;2758.00000000000;2963.00000000000;3136.00000000000;3247.00000000000;3310.00000000000;3415.00000000000;3435.00000000000;3362.00000000000;3334.00000000000;3264.00000000000;3194.00000000000;3189.00000000000;3112.00000000000;2992.00000000000;2867.00000000000;2771.00000000000;2618.00000000000;2535.00000000000;2400.00000000000;2276.00000000000;2183.00000000000;2067.00000000000;2018.00000000000;1885.00000000000;1767.00000000000;1728.00000000000;1682.00000000000;1644.00000000000;1603.00000000000;1535.00000000000;1496.00000000000;1527.00000000000;1504.00000000000;1512.00000000000;1483.00000000000;1507.00000000000;1519.00000000000;1597.00000000000;1621.00000000000;1647.00000000000;1708.00000000000;1732.00000000000;1729.00000000000;1763.00000000000;1759.00000000000;1761.00000000000;1747.00000000000;1751.00000000000;1774.00000000000;1641.00000000000;1621.00000000000;1703.00000000000;1655.00000000000;1575.00000000000;1562.00000000000;1663.00000000000;1724.00000000000;1761.00000000000;1766.00000000000;1747.00000000000;1821.00000000000;1942.00000000000;1991.00000000000;1953.00000000000;1869.00000000000;1819.00000000000;1876.00000000000;1915.00000000000;1873.00000000000;1801.00000000000;1876.00000000000;1930.00000000000;1899.00000000000;1890.00000000000;1913.00000000000;1911.00000000000;1902.00000000000;1824.00000000000;1831.00000000000;1818.00000000000;1801.00000000000;1855.00000000000;1891.00000000000;1945.00000000000;1979.00000000000;1929.00000000000;1905.00000000000;1915.00000000000;1995.00000000000;1950.00000000000;1923.00000000000;1913.00000000000;1942.00000000000;1958.00000000000;1946.00000000000;1935.00000000000;1941.00000000000;1916.00000000000;1910.00000000000;1912.00000000000;1909.00000000000;1883.00000000000;1884.00000000000;1926.00000000000;1887.00000000000;1886.00000000000;1902.00000000000;1892.00000000000;1896.00000000000;1900.00000000000;1906.00000000000;1896.00000000000
Gyro Y : 2144.00000000000;2150.00000000000;2145.00000000000;2098.00000000000;2128.00000000000;2147.00000000000;2126.00000000000;2133.00000000000;2167.00000000000;2138.00000000000;2144.00000000000;2121.00000000000;2154.00000000000;2144.00000000000;2150.00000000000;2152.00000000000;2137.00000000000;2168.00000000000;2144.00000000000;2163.00000000000;2146.00000000000;2150.00000000000;2124.00000000000;2138.00000000000;2131.00000000000;2148.00000000000;2160.00000000000;2124.00000000000;2118.00000000000;2125.00000000000;2120.00000000000;2128.00000000000;2126.00000000000;2183.00000000000;2194.00000000000;2171.00000000000;2195.00000000000;2179.00000000000;2112.00000000000;2029.00000000000;2032.00000000000;1945.00000000000;1905.00000000000;1859.00000000000;1860.00000000000;1808.00000000000;1749.00000000000;1728.00000000000;1698.00000000000;1644.00000000000;1648.00000000000;1606.00000000000;1660.00000000000;1627.00000000000;1613.00000000000;1611.00000000000;1616.00000000000;1573.00000000000;1566.00000000000;1596.00000000000;1563.00000000000;1571.00000000000;1550.00000000000;1508.00000000000;1532.00000000000;1426.00000000000;1380.00000000000;1396.00000000000;1376.00000000000;1316.00000000000;1308.00000000000;1319.00000000000;1275.00000000000;1270.00000000000;1235.00000000000;1231.00000000000;1239.00000000000;1210.00000000000;1203.00000000000;1169.00000000000;1153.00000000000;1147.00000000000;1167.00000000000;1161.00000000000;1193.00000000000;1159.00000000000;1156.00000000000;1158.00000000000;1305.00000000000;1336.00000000000;1272.00000000000;1184.00000000000;1168.00000000000;1298.00000000000;1337.00000000000;1387.00000000000;1372.00000000000;1357.00000000000;1472.00000000000;1520.00000000000;1591.00000000000;1668.00000000000;1712.00000000000;1745.00000000000;1866.00000000000;1966.00000000000;1996.00000000000;2044.00000000000;2095.00000000000;2131.00000000000;2169.00000000000;2219.00000000000;2209.00000000000;2233.00000000000;2228.00000000000;2223.00000000000;2243.00000000000;2254.00000000000;2259.00000000000;2223.00000000000;2227.00000000000;2222.00000000000;2207.00000000000;2207.00000000000;2163.00000000000;2167.00000000000;2174.00000000000;2172.00000000000;2171.00000000000;2180.00000000000;2185.00000000000;2166.00000000000;2134.00000000000;2147.00000000000;2131.00000000000;2142.00000000000;2127.00000000000;2127.00000000000;2131.00000000000;2129.00000000000;2109.00000000000;2113.00000000000;2133.00000000000;2136.00000000000;2110.00000000000;2111.00000000000;2149.00000000000;2149.00000000000;2114.00000000000;2119.00000000000
Gyro Z : 2672.00000000000;2669.00000000000;2663.00000000000;2678.00000000000;2656.00000000000;2669.00000000000;2681.00000000000;2686.00000000000;2671.00000000000;2658.00000000000;2675.00000000000;2673.00000000000;2647.00000000000;2647.00000000000;2672.00000000000;2668.00000000000;2675.00000000000;2673.00000000000;2688.00000000000;2673.00000000000;2682.00000000000;2658.00000000000;2664.00000000000;2647.00000000000;2637.00000000000;2649.00000000000;2621.00000000000;2645.00000000000;2627.00000000000;2634.00000000000;2625.00000000000;2629.00000000000;2696.00000000000;2771.00000000000;2849.00000000000;2864.00000000000;2893.00000000000;2848.00000000000;2712.00000000000;2524.00000000000;2451.00000000000;2274.00000000000;2146.00000000000;2006.00000000000;1937.00000000000;1828.00000000000;1731.00000000000;1657.00000000000;1589.00000000000;1525.00000000000;1507.00000000000;1492.00000000000;1527.00000000000;1523.00000000000;1555.00000000000;1614.00000000000;1627.00000000000;1650.00000000000;1681.00000000000;1696.00000000000;1730.00000000000;1752.00000000000;1794.00000000000;1767.00000000000;1805.00000000000;1885.00000000000;1896.00000000000;1947.00000000000;1962.00000000000;1934.00000000000;1949.00000000000;2011.00000000000;2061.00000000000;2019.00000000000;2030.00000000000;2031.00000000000;2033.00000000000;2014.00000000000;2003.00000000000;1997.00000000000;1992.00000000000;1999.00000000000;1956.00000000000;1960.00000000000;1913.00000000000;1856.00000000000;1802.00000000000;1751.00000000000;1825.00000000000;1811.00000000000;1706.00000000000;1604.00000000000;1593.00000000000;1698.00000000000;1776.00000000000;1778.00000000000;1707.00000000000;1735.00000000000;1833.00000000000;1954.00000000000;2056.00000000000;2122.00000000000;2164.00000000000;2251.00000000000;2397.00000000000;2519.00000000000;2633.00000000000;2671.00000000000;2716.00000000000;2859.00000000000;2934.00000000000;3004.00000000000;3100.00000000000;3215.00000000000;3238.00000000000;3222.00000000000;3231.00000000000;3221.00000000000;3124.00000000000;3090.00000000000;3060.00000000000;3039.00000000000;2940.00000000000;2879.00000000000;2806.00000000000;2786.00000000000;2777.00000000000;2747.00000000000;2690.00000000000;2671.00000000000;2695.00000000000;2661.00000000000;2680.00000000000;2682.00000000000;2669.00000000000;2661.00000000000;2655.00000000000;2656.00000000000;2688.00000000000;2643.00000000000;2655.00000000000;2664.00000000000;2674.00000000000;2672.00000000000;2670.00000000000;2667.00000000000;2643.00000000000;2649.00000000000;2663.00000000000;2648.00000000000
