COMMAND 3 SAMPLE 1
Accel X : 1784.00000000000;1769.00000000000;1755.00000000000;1778.00000000000;1785.00000000000;1785.00000000000;1755.00000000000;1750.00000000000;1760.00000000000;1762.00000000000;1772.00000000000;1760.00000000000;1747.00000000000;1759.00000000000;1795.00000000000;1764.00000000000;1734.00000000000;1727.00000000000;1732.00000000000;1810.00000000000;1837.00000000000;1849.00000000000;1894.00000000000;1925.00000000000;1916.00000000000;1940.00000000000;2060.00000000000;2076.00000000000;2112.00000000000;2193.00000000000;2282.00000000000;2307.00000000000;2358.00000000000;2437.00000000000;2471.00000000000;2621.00000000000;2806.00000000000;2947.00000000000;3023.00000000000;3104.00000000000;3129.00000000000;3268.00000000000;3362.00000000000;3470.00000000000;3353.00000000000;3362.00000000000;3342.00000000000;3302.00000000000;3255.00000000000;3250.00000000000;3259.00000000000;3200.00000000000;3147.00000000000;3065.00000000000;3006.00000000000;2958.00000000000;2852.00000000000;2791.00000000000;2702.00000000000;2584.00000000000;2556.00000000000;2428.00000000000;2304.00000000000;2266.00000000000;2145.00000000000;2085.00000000000;1960.00000000000;1840.00000000000;1736.00000000000;1589.00000000000;1457.00000000000;1363.00000000000;1310.00000000000;1271.00000000000;1166.00000000000;1146.00000000000;1196.00000000000;1182.00000000000;1299.00000000000;1186.00000000000;1249.00000000000;1276.00000000000;1445.00000000000;1571.00000000000;1575.00000000000;1688.00000000000;1739.00000000000;1414.00000000000;1339.00000000000;1564.00000000000;1806.00000000000;1874.00000000000;1809.00000000000;1626.00000000000;1644.00000000000;1873.00000000000;1988.00000000000;1991.00000000000;1913.00000000000;1918.00000000000;1976.00000000000;2066.00000000000;2035.00000000000;1980.00000000000;1942.00000000000;1929.00000000000;1859.00000000000;1887.00000000000;1830.00000000000;1753.00000000000;1868.00000000000;1825.00000000000;1865.00000000000;1948.00000000000;1951.00000000000;1892.00000000000;1867.00000000000;1880.00000000000;1850.00000000000;1822.00000000000;1909.00000000000;1923.00000000000;1886.00000000000;1870.00000000000;1875.00000000000;1895.00000000000;1884.00000000000;1921.00000000000;1943.00000000000;1941.00000000000;1927.00000000000;1934.00000000000;1939.00000000000;1956.00000000000;1956.00000000000;1902.00000000000;1937.00000000000;1956.00000000000;1947.00000000000;1894.00000000000;1912.00000000000;1940.00000000000;1936.00000000000;1922.00000000000;1937.00000000000;1937.00000000000;1928.00000000000;1909.00000000000;1935.00000000000;1886.00000000000
Accel Y : 2144.00000000000;2177.00000000000;2133.00000000000;2130.00000000000;2138.00000000000;2136.00000000000;2122.00000000000;2139.00000000000;2137.00000000000;2130.00000000000;2117.00000000000;2126.00000000000;2137.00000000000;2117.00000000000;2102.00000000000;2125.00000000000;2123.00000000000;2101.00000000000;2129.00000000000;2109.00000000000;2100.00000000000;2105.00000000000;2093.00000000000;2112.00000000000;2111.00000000000;2089.00000000000;2108.00000000000;2105.00000000000;2112.00000000000;2093.00000000000;2095.00000000000;2101.00000000000;2066.00000000000;2084.00000000000;2078.00000000000;2069.00000000000;2051.00000000000;2036.00000000000;2005.00000000000;2016.00000000000;2000.00000000000;1985.00000000000;1876.00000000000;1907.00000000000;1913.00000000000;1897.00000000000;1831.00000000000;1832.00000000000;1815.00000000000;1744.00000000000;1728.00000000000;1742.00000000000;1734.00000000000;1712.00000000000;1640.00000000000;1643.00000000000;1658.00000000000;1617.00000000000;1627.00000000000;1613.00000000000;1555.00000000000;1560.00000000000;1573.00000000000;1569.00000000000;1581.00000000000;1577.00000000000;1611.00000000000;1551.00000000000;1544.00000000000;1571.00000000000;1558.00000000000;1545.00000000000;1491.00000000000;1483.00000000000;1455.00000000000;1461.00000000000;1438.00000000000;1448.00000000000;1418.00000000000;1366.00000000000;1348.00000000000;1357.00000000000;1356.00000000000;1302.00000000000;1275.00000000000;1313.00000000000;1311.00000000000;1221.00000000000;1221.00000000000;1248.00000000000;1307.00000000000;1332.00000000000;1275.00000000000;1263.00000000000;1302.00000000000;1460.00000000000;1557.00000000000;1579.00000000000;1618.00000000000;1632.00000000000;1775.00000000000;1895.00000000000;1858.00000000000;1880.00000000000;2005.00000000000;2053.00000000000;2107.00000000000;2156.00000000000;2220.00000000000;2328.00000000000;2368.00000000000;2365.00000000000;2363.00000000000;2370.00000000000;2385.00000000000;2380.00000000000;2355.00000000000;2326.00000000000;2326.00000000000;2319.00000000000;2323.00000000000;2315.00000000000;2281.00000000000;2278.00000000000;2316.00000000000;2304.00000000000;2271.00000000000;2294.00000000000;2289.00000000000;2280.00000000000;2291.00000000000;2269.00000000000;2254.00000000000;2265.00000000000;2247.00000000000;2258.00000000000;2290.00000000000;2235.00000000000;2254.00000000000;2237.00000000000;2217.00000000000;2227.00000000000;2239.00000000000;2249.00000000000;2235.00000000000;2223.00000000000;2233.00000000000;2220.00000000000;2227.00000000000;2241.00000000000
Accel Z : 2674.00000000000;2677.00000000000;2672.00000000000;2674.00000000000;2657.00000000000;2652.00000000000;2653.00000000000;2677.00000000000;2663.00000000000;2653.00000000000;2647.00000000000;2632.00000000000;2648.00000000000;2642.00000000000;2610.00000000000;2626.00000000000;2584.00000000000;2594.00000000000;2584.00000000000;2603.00000000000;2634.00000000000;2633.00000000000;2666.00000000000;2662.00000000000;2627.00000000000;2617.00000000000;2631.00000000000;2632.00000000000;2615.00000000000;2556.00000000000;2563.00000000000;2515.00000000000;2537.00000000000;2528.00000000000;2470.00000000000;2404.00000000000;2363.00000000000;2338.00000000000;2343.00000000000;2285.00000000000;2127.00000000000;1970.00000000000;1875.00000000000;1927.00000000000;1882.00000000000;1825.00000000000;1770.00000000000;1736.00000000000;1715.00000000000;1657.00000000000;1617.00000000000;1615.00000000000;1576.00000000000;1556.00000000000;1555.00000000000;1560.00000000000;1563.00000000000;1565.00000000000;1593.00000000000;1601.00000000000;1634.00000000000;1652.00000000000;1703.00000000000;1746.00000000000;1738.00000000000;1777.00000000000;1756.00000000000;1754.00000000000;1817.00000000000;1863.00000000000;1895.00000000000;1882.00000000000;1953.00000000000;2032.00000000000;2011.00000000000;2037.00000000000;2051.00000000000;2077.00000000000;2157.00000000000;2055.00000000000;2067.00000000000;2054.00000000000;2101.00000000000;2076.00000000000;1974.00000000000;1990.00000000000;1944.00000000000;1811.00000000000;1733.00000000000;1770.00000000000;1851.00000000000;1826.00000000000;1724.00000000000;1663.00000000000;1748.00000000000;1826.00000000000;1845.00000000000;1909.00000000000;1941.00000000000;2009.00000000000;2065.00000000000;2263.00000000000;2310.00000000000;2373.00000000000;2506.00000000000;2536.00000000000;2742.00000000000;2855.00000000000;2897.00000000000;2995.00000000000;3103.00000000000;3180.00000000000;3175.00000000000;3207.00000000000;3230.00000000000;3173.00000000000;3123.00000000000;3090.00000000000;3068.00000000000;2982.00000000000;2963.00000000000;2925.00000000000;2890.00000000000;2858.00000000000;2835.00000000000;2795.00000000000;2747.00000000000;2733.00000000000;2730.00000000000;2689.00000000000;2668.00000000000;2676.00000000000;2683.00000000000;2667.00000000000;2674.00000000000;2643.00000000000;2665.00000000000;2660.00000000000;2641.00000000000;2640.00000000000;2647.00000000000;2636.00000000000;2649.00000000000;2637.00000000000;2636.00000000000;2678.00000000000;2658.00000000000;2649.00000000000;2647.00000000000;2653.00000000000
Gyro X : 1784.00000000000;1769.00000000000;1755.00000000000;1778.00000000000;1785.00000000000;1785.00000000000;1755.00000000000;1750.00000000000;1760.00000000000;1762.00000000000;1772.00000000000;1760.00000000000;1747.00000000000;1759.00000000000;1795.00000000000;1764.00000000000;1734.00000000000;1727.00000000000;1732.00000000000;1810.00000000000;1837.00000000000;1849.00000000000;1894.00000000000;1925.00000000000;1916.00000000000;1940.00000000000;2060.00000000000;2076.00000000000;2112.00000000000;2193.00000000000;2282.00000000000;2307.00000000000;2358.00000000000;2437.00000000000;2471.00000000000;2621.00000000000;2806.00000000000;2947.00000000000;3023.00000000000;3104.00000000000;3129.00000000000;3268.00000000000;3362.00000000000;3470.00000000000;3353.00000000000;3362.00000000000;3342.00000000000;3302.00000000000;3255.00000000000;3250.00000000000;3259.00000000000;3200.00000000000;3147.00000000000;3065.00000000000;3006.00000000000;2958.00000000000;2852.00000000000;2791.00000000000;2702.00000000000;2584.00000000000;2556.00000000000;2428.00000000000;2304.00000000000;2266.00000000000;2145.00000000000;2085.00000000000;1960.00000000000;1840.00000000000;1736.00000000000;1589.00000000000;1457.00000000000;1363.00000000000;1310.00000000000;1271.00000000000;1166.00000000000;1146.00000000000;1196.00000000000;1182.00000000000;1299.00000000000;1186.00000000000;1249.00000000000;1276.00000000000;1445.00000000000;1571.00000000000;1575.00000000000;1688.00000000000;1739.00000000000;1414.00000000000;1339.00000000000;1564.00000000000;1806.00000000000;1874.00000000000;1809.00000000000;1626.00000000000;1644.00000000000;1873.00000000000;1988.00000000000;1991.00000000000;1913.00000000000;1918.00000000000;1976.00000000000;2066.00000000000;2035.00000000000;1980.00000000000;1942.00000000000;1929.00000000000;1859.00000000000;1887.00000000000;1830.00000000000;1753.00000000000;1868.00000000000;1825.00000000000;1865.00000000000;1948.00000000000;1951.00000000000;1892.00000000000;1867.00000000000;1880.00000000000;1850.00000000000;1822.00000000000;1909.00000000000;1923.00000000000;1886.00000000000;1870.00000000000;1875.00000000000;1895.00000000000;1884.00000000000;1921.00000000000;1943.00000000000;1941.00000000000;1927.00000000000;1934.00000000000;1939.00000000000;1956.00000000000;1956.00000000000;1902.00000000000;1937.00000000000;1956.00000000000;1947.00000000000;1894.00000000000;1912.00000000000;1940.00000000000;1936.00000000000;1922.00000000000;1937.00000000000;1937.00000000000;1928.00000000000;1909.00000000000;1935.00000000000;1886.00000000000
Gyro Y : 2144.00000000000;2177.00000000000;2133.00000000000;2130.00000000000;2138.00000000000;2136.00000000000;2122.00000000000;2139.00000000000;2137.00000000000;2130.00000000000;2117.00000000000;2126.00000000000;2137.00000000000;2117.00000000000;2102.00000000000;2125.00000000000;2123.00000000000;2101.00000000000;2129.00000000000;2109.00000000000;2100.00000000000;2105.00000000000;2093.00000000000;2112.00000000000;2111.00000000000;2089.00000000000;2108.00000000000;2105.00000000000;2112.00000000000;2093.00000000000;2095.00000000000;2101.00000000000;2066.00000000000;2084.00000000000;2078.00000000000;2069.00000000000;2051.00000000000;2036.00000000000;2005.00000000000;2016.00000000000;2000.00000000000;1985.00000000000;1876.00000000000;1907.00000000000;1913.00000000000;1897.00000000000;1831.00000000000;1832.00000000000;1815.00000000000;1744.00000000000;1728.00000000000;1742.00000000000;1734.00000000000;1712.00000000000;1640.00000000000;1643.00000000000;1658.00000000000;1617.00000000000;1627.00000000000;1613.00000000000;1555.00000000000;1560.00000000000;1573.00000000000;1569.00000000000;1581.00000000000;1577.00000000000;1611.00000000000;1551.00000000000;1544.00000000000;1571.00000000000;1558.00000000000;1545.00000000000;1491.00000000000;1483.00000000000;1455.00000000000;1461.00000000000;1438.00000000000;1448.00000000000;1418.00000000000;1366.00000000000;1348.00000000000;1357.00000000000;1356.00000000000;1302.00000000000;1275.00000000000;1313.00000000000;1311.00000000000;1221.00000000000;1221.00000000000;1248.00000000000;1307.00000000000;1332.00000000000;1275.00000000000;1263.00000000000;1302.00000000000;1460.00000000000;1557.00000000000;1579.00000000000;1618.00000000000;1632.00000000000;1775.00000000000;1895.00000000000;1858.00000000000;1880.00000000000;2005.00000000000;2053.00000000000;2107.00000000000;2156.00000000000;2220.00000000000;2328.00000000000;2368.00000000000;2365.00000000000;2363.00000000000;2370.00000000000;2385.00000000000;2380.00000000000;2355.00000000000;2326.00000000000;2326.00000000000;2319.00000000000;2323.00000000000;2315.00000000000;2281.00000000000;2278.00000000000;2316.00000000000;2304.00000000000;2271.00000000000;2294.00000000000;2289.00000000000;2280.00000000000;2291.00000000000;2269.00000000000;2254.00000000000;2265.00000000000;2247.00000000000;2258.00000000000;2290.00000000000;2235.00000000000;2254.00000000000;2237.00000000000;2217.00000000000;2227.00000000000;2239.00000000000;2249.00000000000;2235.00000000000;2223.00000000000;2233.00000000000;2220.00000000000;2227.00000000000;2241.00000000000
Gyro Z : 2674.00000000000;2677.00000000000;2672.00000000000;2674.00000000000;2657.00000000000;2652.00000000000;2653.00000000000;2677.00000000000;2663.00000000000;2653.00000000000;2647.00000000000;2632.00000000000;2648.00000000000;2642.00000000000;2610.00000000000;2626.00000000000;2584.00000000000;2594.00000000000;2584.00000000000;2603.00000000000;2634.00000000000;2633.00000000000;2666.00000000000;2662.00000000000;2627.00000000000;2617.00000000000;2631.00000000000;2632.00000000000;2615.00000000000;2556.00000000000;2563.00000000000;2515.00000000000;2537.00000000000;2528.00000000000;2470.00000000000;2404.00000000000;2363.00000000000;2338.00000000000;2343.00000000000;2285.00000000000;2127.00000000000;1970.00000000000;1875.00000000000;1927.00000000000;1882.00000000000;1825.00000000000;1770.00000000000;1736.00000000000;1715.00000000000;1657.00000000000;1617.00000000000;1615.00000000000;1576.00000000000;1556.00000000000;1555.00000000000;1560.00000000000;1563.00000000000;1565.00000000000;1593.00000000000;1601.00000000000;1634.00000000000;1652.00000000000;1703.00000000000;1746.00000000000;1738.00000000000;1777.00000000000;1756.00000000000;1754.00000000000;1817.00000000000;1863.00000000000;1895.00000000000;1882.00000000000;1953.00000000000;2032.00000000000;2011.00000000000;2037.00000000000;2051.00000000000;2077.00000000000;2157.00000000000;2055.00000000000;2067.00000000000;2054.00000000000;2101.00000000000;2076.00000000000;1974.00000000000;1990.00000000000;1944.00000000000;1811.00000000000;1733.00000000000;1770.00000000000;1851.00000000000;1826.00000000000;1724.00000000000;1663.00000000000;1748.00000000000;1826.00000000000;1845.00000000000;1909.00000000000;1941.00000000000;2009.00000000000;2065.00000000000;2263.00000000000;2310.00000000000;2373.00000000000;2506.00000000000;2536.00000000000;2742.00000000000;2855.00000000000;2897.00000000000;2995.00000000000;3103.00000000000;3180.00000000000;3175.00000000000;3207.00000000000;3230.00000000000;3173.00000000000;3123.00000000000;3090.00000000000;3068.00000000000;2982.00000000000;2963.00000000000;2925.00000000000;2890.00000000000;2858.00000000000;2835.00000000000;2795.00000000000;2747.00000000000;2733.00000000000;2730.00000000000;2689.00000000000;2668.00000000000;2676.00000000000;2683.00000000000;2667.00000000000;2674.00000000000;2643.00000000000;2665.00000000000;2660.00000000000;2641.00000000000;2640.00000000000;2647.00000000000;2636.00000000000;2649.00000000000;2637.00000000000;2636.00000000000;2678.00000000000;2658.00000000000;2649.00000000000;2647.00000000000;2653.00000000000
