COMMAND 2 SAMPLE 1
Accel X : 1788.00000000000;1808.00000000000;1778.00000000000;1799.00000000000;1830.00000000000;1777.00000000000;1778.00000000000;1791.00000000000;1818.00000000000;1797.00000000000;1781.00000000000;1782.00000000000;1784.00000000000;1776.00000000000;1777.00000000000;1739.00000000000;1772.00000000000;1791.00000000000;1778.00000000000;1773.00000000000;1758.00000000000;1778.00000000000;1771.00000000000;1759.00000000000;1788.00000000000;1787.00000000000;1777.00000000000;1758.00000000000;1769.00000000000;1763.00000000000;1773.00000000000;1746.00000000000;1783.00000000000;1731.00000000000;1721.00000000000;1672.00000000000;1622.00000000000;1637.00000000000;1728.00000000000;1784.00000000000;1775.00000000000;1794.00000000000;1756.00000000000;1792.00000000000;1910.00000000000;1987.00000000000;2015.00000000000;2078.00000000000;2144.00000000000;2198.00000000000;2251.00000000000;2255.00000000000;2330.00000000000;2346.00000000000;2329.00000000000;2341.00000000000;2466.00000000000;2536.00000000000;2589.00000000000;2632.00000000000;2662.00000000000;2730.00000000000;2822.00000000000;2851.00000000000;2785.00000000000;2789.00000000000;2831.00000000000;2939.00000000000;2911.00000000000;2865.00000000000;2869.00000000000;2902.00000000000;2916.00000000000;2924.00000000000;2898.00000000000;2888.00000000000;2868.00000000000;2854.00000000000;2879.00000000000;2897.00000000000;2891.00000000000;2863.00000000000;2880.00000000000;2863.00000000000;2844.00000000000;2890.00000000000;2906.00000000000;2893.00000000000;2891.00000000000;2897.00000000000;2877.00000000000;2913.00000000000;2894.00000000000;2887.00000000000;2906.00000000000;2915.00000000000;2958.00000000000;2943.00000000000;2951.00000000000;2947.00000000000;2975.00000000000;2986.00000000000;2974.00000000000;2980.00000000000;2964.00000000000;2976.00000000000;2981.00000000000;2950.00000000000;2931.00000000000;2907.00000000000;2935.00000000000;2972.00000000000;2922.00000000000;2845.00000000000;2847.00000000000;2858.00000000000;2835.00000000000;2748.00000000000;2754.00000000000;2682.00000000000;2654.00000000000;2625.00000000000;2582.00000000000;2505.00000000000;2376.00000000000;2283.00000000000;2188.00000000000;2135.00000000000;2084.00000000000;1964.00000000000;1823.00000000000;1680.00000000000;1631.00000000000;1658.00000000000;1635.00000000000;1618.00000000000;1565.00000000000;1584.00000000000;1632.00000000000;1639.00000000000;1614.00000000000;1659.00000000000;1675.00000000000;1687.00000000000;1708.00000000000;1698.00000000000;1736.00000000000;1764.00000000000;1751.00000000000;1737.00000000000
Accel Y : 2107.00000000000;2121.00000000000;2128.00000000000;2113.00000000000;2107.00000000000;2113.00000000000;2112.00000000000;2156.00000000000;2118.00000000000;2116.00000000000;2143.00000000000;2113.00000000000;2110.00000000000;2123.00000000000;2125.00000000000;2125.00000000000;2111.00000000000;2127.00000000000;2109.00000000000;2116.00000000000;2115.00000000000;2109.00000000000;2126.00000000000;2110.00000000000;2124.00000000000;2118.00000000000;2121.00000000000;2118.00000000000;2107.00000000000;2139.00000000000;2117.00000000000;2139.00000000000;2153.00000000000;2167.00000000000;2150.00000000000;2169.00000000000;2172.00000000000;2187.00000000000;2191.00000000000;2160.00000000000;2167.00000000000;2175.00000000000;2162.00000000000;2174.00000000000;2143.00000000000;2177.00000000000;2184.00000000000;2147.00000000000;2143.00000000000;2145.00000000000;2157.00000000000;2150.00000000000;2131.00000000000;2172.00000000000;2143.00000000000;2056.00000000000;2031.00000000000;2037.00000000000;2052.00000000000;2028.00000000000;1988.00000000000;2010.00000000000;2012.00000000000;1975.00000000000;1969.00000000000;1986.00000000000;1994.00000000000;1970.00000000000;1953.00000000000;1907.00000000000;1871.00000000000;1871.00000000000;1867.00000000000;1824.00000000000;1782.00000000000;1781.00000000000;1792.00000000000;1763.00000000000;1770.00000000000;1773.00000000000;1720.00000000000;1682.00000000000;1687.00000000000;1669.00000000000;1668.00000000000;1662.00000000000;1665.00000000000;1648.00000000000;1653.00000000000;1659.00000000000;1660.00000000000;1631.00000000000;1645.00000000000;1683.00000000000;1672.00000000000;1649.00000000000;1667.00000000000;1688.00000000000;1694.00000000000;1682.00000000000;1722.00000000000;1757.00000000000;1768.00000000000;1790.00000000000;1799.00000000000;1847.00000000000;1862.00000000000;1871.00000000000;1911.00000000000;1935.00000000000;1945.00000000000;1946.00000000000;2056.00000000000;2035.00000000000;2051.00000000000;2096.00000000000;2129.00000000000;2110.00000000000;2147.00000000000;2154.00000000000;2135.00000000000;2171.00000000000;2195.00000000000;2242.00000000000;2262.00000000000;2157.00000000000;2117.00000000000;2188.00000000000;2202.00000000000;2230.00000000000;2218.00000000000;2235.00000000000;2197.00000000000;2194.00000000000;2241.00000000000;2199.00000000000;2181.00000000000;2151.00000000000;2160.00000000000;2127.00000000000;2096.00000000000;2092.00000000000;2111.00000000000;2101.00000000000;2089.00000000000;2077.00000000000;2082.00000000000;2063.00000000000;2085.00000000000;2108.00000000000
Accel Z : 2666.00000000000;2673.00000000000;2655.00000000000;2669.00000000000;2663.00000000000;2658.00000000000;2623.00000000000;2625.00000000000;2643.00000000000;2645.00000000000;2614.00000000000;2632.00000000000;2621.00000000000;2632.00000000000;2646.00000000000;2649.00000000000;2627.00000000000;2652.00000000000;2665.00000000000;2631.00000000000;2641.00000000000;2665.00000000000;2664.00000000000;2654.00000000000;2667.00000000000;2667.00000000000;2663.00000000000;2684.00000000000;2693.00000000000;2672.00000000000;2673.00000000000;2662.00000000000;2681.00000000000;2697.00000000000;2674.00000000000;2705.00000000000;2759.00000000000;2749.00000000000;2782.00000000000;2797.00000000000;2777.00000000000;2753.00000000000;2752.00000000000;2758.00000000000;2717.00000000000;2735.00000000000;2713.00000000000;2669.00000000000;2682.00000000000;2653.00000000000;2649.00000000000;2592.00000000000;2593.00000000000;2577.00000000000;2510.00000000000;2427.00000000000;2399.00000000000;2391.00000000000;2341.00000000000;2267.00000000000;2187.00000000000;2200.00000000000;2106.00000000000;2063.00000000000;2006.00000000000;1961.00000000000;1910.00000000000;1846.00000000000;1780.00000000000;1705.00000000000;1655.00000000000;1675.00000000000;1665.00000000000;1587.00000000000;1571.00000000000;1550.00000000000;1560.00000000000;1560.00000000000;1588.00000000000;1564.00000000000;1581.00000000000;1572.00000000000;1594.00000000000;1548.00000000000;1525.00000000000;1524.00000000000;1478.00000000000;1480.00000000000;1468.00000000000;1497.00000000000;1457.00000000000;1452.00000000000;1441.00000000000;1447.00000000000;1415.00000000000;1410.00000000000;1389.00000000000;1427.00000000000;1392.00000000000;1321.00000000000;1355.00000000000;1415.00000000000;1397.00000000000;1410.00000000000;1470.00000000000;1517.00000000000;1572.00000000000;1595.00000000000;1655.00000000000;1710.00000000000;1742.00000000000;1827.00000000000;1914.00000000000;1909.00000000000;1931.00000000000;2091.00000000000;2160.00000000000;2163.00000000000;2298.00000000000;2303.00000000000;2295.00000000000;2388.00000000000;2441.00000000000;2527.00000000000;2577.00000000000;2490.00000000000;2482.00000000000;2581.00000000000;2635.00000000000;2627.00000000000;2673.00000000000;2608.00000000000;2615.00000000000;2674.00000000000;2671.00000000000;2656.00000000000;2659.00000000000;2642.00000000000;2671.00000000000;2646.00000000000;2666.00000000000;2660.00000000000;2668.00000000000;2647.00000000000;2646.00000000000;2668.00000000000;2646.00000000000;2651.00000000000;2660.00000000000;2685.00000000000
Gyro X : 1788.00000000000;1808.00000000000;1778.00000000000;1799.00000000000;1830.00000000000;1777.00000000000;1778.00000000000;1791.00000000000;1818.00000000000;1797.00000000000;1781.00000000000;1782.00000000000;1784.00000000000;1776.00000000000;1777.00000000000;1739.00000000000;1772.00000000000;1791.00000000000;1778.00000000000;1773.00000000000;1758.00000000000;1778.00000000000;1771.00000000000;1759.00000000000;1788.00000000000;1787.00000000000;1777.00000000000;1758.00000000000;1769.00000000000;1763.00000000000;1773.00000000000;1746.00000000000;1783.00000000000;1731.00000000000;1721.00000000000;1672.00000000000;1622.00000000000;1637.00000000000;1728.00000000000;1784.00000000000;1775.00000000000;1794.00000000000;1756.00000000000;1792.00000000000;1910.00000000000;1987.00000000000;2015.00000000000;2078.00000000000;2144.00000000000;2198.00000000000;2251.00000000000;2255.00000000000;2330.00000000000;2346.00000000000;2329.00000000000;2341.00000000000;2466.00000000000;2536.00000000000;2589.00000000000;2632.00000000000;2662.00000000000;2730.00000000000;2822.00000000000;2851.00000000000;2785.00000000000;2789.00000000000;2831.00000000000;2939.00000000000;2911.00000000000;2865.00000000000;2869.00000000000;2902.00000000000;2916.00000000000;2924.00000000000;2898.00000000000;2888.00000000000;2868.00000000000;2854.00000000000;2879.00000000000;2897.00000000000;2891.00000000000;2863.00000000000;2880.00000000000;2863.00000000000;2844.00000000000;2890.00000000000;2906.00000000000;2893.00000000000;2891.00000000000;2897.00000000000;2877.00000000000;2913.00000000000;2894.00000000000;2887.00000000000;2906.00000000000;2915.00000000000;2958.00000000000;2943.00000000000;2951.00000000000;2947.00000000000;2975.00000000000;2986.00000000000;2974.00000000000;2980.00000000000;2964.00000000000;2976.00000000000;2981.00000000000;2950.00000000000;2931.00000000000;2907.00000000000;2935.00000000000;2972.00000000000;2922.00000000000;2845.00000000000;2847.00000000000;2858.00000000000;2835.00000000000;2748.00000000000;2754.00000000000;2682.00000000000;2654.00000000000;2625.00000000000;2582.00000000000;2505.00000000000;2376.00000000000;2283.00000000000;2188.00000000000;2135.00000000000;2084.00000000000;1964.00000000000;1823.00000000000;1680.00000000000;1631.00000000000;1658.00000000000;1635.00000000000;1618.00000000000;1565.00000000000;1584.00000000000;1632.00000000000;1639.00000000000;1614.00000000000;1659.00000000000;1675.00000000000;1687.00000000000;1708.00000000000;1698.00000000000;1736.00000000000;1764.00000000000;1751.00000000000;1737.00000000000
Gyro Y : 2107.00000000000;2121.00000000000;2128.00000000000;2113.00000000000;2107.00000000000;2113.00000000000;2112.00000000000;2156.00000000000;2118.00000000000;2116.00000000000;2143.00000000000;2113.00000000000;2110.00000000000;2123.00000000000;2125.00000000000;2125.00000000000;2111.00000000000;2127.00000000000;2109.00000000000;2116.00000000000;2115.00000000000;2109.00000000000;2126.00000000000;2110.00000000000;2124.00000000000;2118.00000000000;2121.00000000000;2118.00000000000;2107.00000000000;2139.00000000000;2117.00000000000;2139.00000000000;2153.00000000000;2167.00000000000;2150.00000000000;2169.00000000000;2172.00000000000;2187.00000000000;2191.00000000000;2160.00000000000;2167.00000000000;2175.00000000000;2162.00000000000;2174.00000000000;2143.00000000000;2177.00000000000;2184.00000000000;2147.00000000000;2143.00000000000;2145.00000000000;2157.00000000000;2150.00000000000;2131.00000000000;2172.00000000000;2143.00000000000;2056.00000000000;2031.00000000000;2037.00000000000;2052.00000000000;2028.00000000000;1988.00000000000;2010.00000000000;2012.00000000000;1975.00000000000;1969.00000000000;1986.00000000000;1994.00000000000;1970.00000000000;1953.00000000000;1907.00000000000;1871.00000000000;1871.00000000000;1867.00000000000;1824.00000000000;1782.00000000000;1781.00000000000;1792.00000000000;1763.00000000000;1770.00000000000;1773.00000000000;1720.00000000000;1682.00000000000;1687.00000000000;1669.00000000000;1668.00000000000;1662.00000000000;1665.00000000000;1648.00000000000;1653.00000000000;1659.00000000000;1660.00000000000;1631.00000000000;1645.00000000000;1683.00000000000;1672.00000000000;1649.00000000000;1667.00000000000;1688.00000000000;1694.00000000000;1682.00000000000;1722.00000000000;1757.00000000000;1768.00000000000;1790.00000000000;1799.00000000000;1847.00000000000;1862.00000000000;1871.00000000000;1911.00000000000;1935.00000000000;1945.00000000000;1946.00000000000;2056.00000000000;2035.00000000000;2051.00000000000;2096.00000000000;2129.00000000000;2110.00000000000;2147.00000000000;2154.00000000000;2135.00000000000;2171.00000000000;2195.00000000000;2242.00000000000;2262.00000000000;2157.00000000000;2117.00000000000;2188.00000000000;2202.00000000000;2230.00000000000;2218.00000000000;2235.00000000000;2197.00000000000;2194.00000000000;2241.00000000000;2199.00000000000;2181.00000000000;2151.00000000000;2160.00000000000;2127.00000000000;2096.00000000000;2092.00000000000;2111.00000000000;2101.00000000000;2089.00000000000;2077.00000000000;2082.00000000000;2063.00000000000;2085.00000000000;2108.00000000000
Gyro Z : 2666.00000000000;2673.00000000000;2655.00000000000;2669.00000000000;2663.00000000000;2658.00000000000;2623.00000000000;2625.00000000000;2643.00000000000;2645.00000000000;2614.00000000000;2632.00000000000;2621.00000000000;2632.00000000000;2646.00000000000;2649.00000000000;2627.00000000000;2652.00000000000;2665.00000000000;2631.00000000000;2641.00000000000;2665.00000000000;2664.00000000000;2654.00000000000;2667.00000000000;2667.00000000000;2663.00000000000;2684.00000000000;2693.00000000000;2672.00000000000;2673.00000000000;2662.00000000000;2681.00000000000;2697.00000000000;2674.00000000000;2705.00000000000;2759.00000000000;2749.00000000000;2782.00000000000;2797.00000000000;2777.00000000000;2753.00000000000;2752.00000000000;2758.00000000000;2717.00000000000;2735.00000000000;2713.00000000000;2669.00000000000;2682.00000000000;2653.00000000000;2649.00000000000;2592.00000000000;2593.00000000000;2577.00000000000;2510.00000000000;2427.00000000000;2399.00000000000;2391.00000000000;2341.00000000000;2267.00000000000;2187.00000000000;2200.00000000000;2106.00000000000;2063.00000000000;2006.00000000000;1961.00000000000;1910.00000000000;1846.00000000000;1780.00000000000;1705.00000000000;1655.00000000000;1675.00000000000;1665.00000000000;1587.00000000000;1571.00000000000;1550.00000000000;1560.00000000000;1560.00000000000;1588.00000000000;1564.00000000000;1581.00000000000;1572.00000000000;1594.00000000000;1548.00000000000;1525.00000000000;1524.00000000000;1478.00000000000;1480.00000000000;1468.00000000000;1497.00000000000;1457.00000000000;1452.00000000000;1441.00000000000;1447.00000000000;1415.00000000000;1410.00000000000;1389.00000000000;1427.00000000000;1392.00000000000;1321.00000000000;1355.00000000000;1415.00000000000;1397.00000000000;1410.00000000000;1470.00000000000;1517.00000000000;1572.00000000000;1595.00000000000;1655.00000000000;1710.00000000000;1742.00000000000;1827.00000000000;1914.00000000000;1909.00000000000;1931.00000000000;2091.00000000000;2160.00000000000;2163.00000000000;2298.00000000000;2303.00000000000;2295.00000000000;2388.00000000000;2441.00000000000;2527.00000000000;2577.00000000000;2490.00000000000;2482.00000000000;2581.00000000000;2635.00000000000;2627.00000000000;2673.00000000000;2608.00000000000;2615.00000000000;2674.00000000000;2671.00000000000;2656.00000000000;2659.00000000000;2642.00000000000;2671.00000000000;2646.00000000000;2666.00000000000;2660.00000000000;2668.00000000000;2647.00000000000;2646.00000000000;2668.00000000000;2646.00000000000;2651.00000000000;2660.00000000000;2685.00000000000
