COMMAND 1 SAMPLE 1
Accel X : 1847.00000000000;1858.00000000000;1835.00000000000;1874.00000000000;1846.00000000000;1866.00000000000;1857.00000000000;1862.00000000000;1879.00000000000;1853.00000000000;1854.00000000000;1864.00000000000;1858.00000000000;1837.00000000000;1879.00000000000;1850.00000000000;1849.00000000000;1863.00000000000;1855.00000000000;1841.00000000000;1861.00000000000;1885.00000000000;1828.00000000000;1853.00000000000;1828.00000000000;1848.00000000000;1833.00000000000;1849.00000000000;1824.00000000000;1812.00000000000;1835.00000000000;1840.00000000000;1862.00000000000;1884.00000000000;1878.00000000000;1927.00000000000;1976.00000000000;1996.00000000000;2026.00000000000;2131.00000000000;2164.00000000000;2147.00000000000;2251.00000000000;2365.00000000000;2403.00000000000;2449.00000000000;2568.00000000000;2684.00000000000;2755.00000000000;2747.00000000000;2721.00000000000;2839.00000000000;2891.00000000000;2866.00000000000;2875.00000000000;2899.00000000000;2809.00000000000;2790.00000000000;2850.00000000000;2751.00000000000;2650.00000000000;2654.00000000000;2431.00000000000;2250.00000000000;2183.00000000000;2162.00000000000;2059.00000000000;1955.00000000000;1895.00000000000;1806.00000000000;1731.00000000000;1667.00000000000;1592.00000000000;1546.00000000000;1462.00000000000;1388.00000000000;1430.00000000000;1411.00000000000;1340.00000000000;1259.00000000000;1187.00000000000;1121.00000000000;1044.00000000000;1017.00000000000;963.000000000000;919.000000000000;900.000000000000;806.000000000000;745.000000000000;875.000000000000;984.000000000000;967.000000000000;972.000000000000;1096.00000000000;1328.00000000000;1549.00000000000;1615.00000000000;1775.00000000000;1941.00000000000;2054.00000000000;2170.00000000000;2414.00000000000;2964.00000000000;3476.00000000000;3554.00000000000;3448.00000000000;3139.00000000000;2750.00000000000;2744.00000000000;3100.00000000000;3230.00000000000;3199.00000000000;3055.00000000000;2813.00000000000;2773.00000000000;2735.00000000000;2580.00000000000;2419.00000000000;2363.00000000000;2306.00000000000;2101.00000000000;1940.00000000000;1955.00000000000;1964.00000000000;1938.00000000000;1983.00000000000;1951.00000000000;1922.00000000000;1958.00000000000;1907.00000000000;1882.00000000000;1900.00000000000;1921.00000000000;1900.00000000000;1927.00000000000;1955.00000000000;1973.00000000000;1916.00000000000;1909.00000000000;1937.00000000000;1933.00000000000;1875.00000000000;1916.00000000000;1898.00000000000;1882.00000000000;1907.00000000000;1937.00000000000;1869.00000000000;1922.00000000000;1926.00000000000
Accel Y : 2163.00000000000;2157.00000000000;2122.00000000000;2161.00000000000;2155.00000000000;2147.00000000000;2159.00000000000;2138.00000000000;2155.00000000000;2160.00000000000;2131.00000000000;2147.00000000000;2145.00000000000;2165.00000000000;2159.00000000000;2156.00000000000;2157.00000000000;2137.00000000000;2156.00000000000;2151.00000000000;2161.00000000000;2143.00000000000;2151.00000000000;2166.00000000000;2181.00000000000;2163.00000000000;2159.00000000000;2168.00000000000;2161.00000000000;2152.00000000000;2158.00000000000;2151.00000000000;2154.00000000000;2168.00000000000;2155.00000000000;2140.00000000000;2142.00000000000;2133.00000000000;2126.00000000000;2105.00000000000;2106.00000000000;2119.00000000000;2115.00000000000;2104.00000000000;2105.00000000000;2095.00000000000;2063.00000000000;2069.00000000000;2034.00000000000;2019.00000000000;1983.00000000000;1981.00000000000;1946.00000000000;1932.00000000000;1886.00000000000;1790.00000000000;1782.00000000000;1715.00000000000;1667.00000000000;1595.00000000000;1538.00000000000;1510.00000000000;1475.00000000000;1369.00000000000;1336.00000000000;1409.00000000000;1338.00000000000;1287.00000000000;1315.00000000000;1340.00000000000;1313.00000000000;1271.00000000000;1260.00000000000;1315.00000000000;1287.00000000000;1268.00000000000;1296.00000000000;1310.00000000000;1361.00000000000;1350.00000000000;1378.00000000000;1368.00000000000;1387.00000000000;1399.00000000000;1413.00000000000;1402.00000000000;1443.00000000000;1433.00000000000;1421.00000000000;1478.00000000000;1519.00000000000;1445.00000000000;1399.00000000000;1443.00000000000;1442.00000000000;1470.00000000000;1443.00000000000;1485.00000000000;1532.00000000000;1675.00000000000;1897.00000000000;2292.00000000000;2689.00000000000;2762.00000000000;2389.00000000000;2213.00000000000;2180.00000000000;2058.00000000000;2065.00000000000;2023.00000000000;1967.00000000000;1987.00000000000;1977.00000000000;2008.00000000000;2043.00000000000;2049.00000000000;2096.00000000000;2067.00000000000;2093.00000000000;2127.00000000000;2079.00000000000;2102.00000000000;2100.00000000000;2131.00000000000;2113.00000000000;2122.00000000000;2114.00000000000;2097.00000000000;2122.00000000000;2137.00000000000;2119.00000000000;2099.00000000000;2112.00000000000;2123.00000000000;2095.00000000000;2133.00000000000;2107.00000000000;2128.00000000000;2123.00000000000;2132.00000000000;2134.00000000000;2132.00000000000;2140.00000000000;2159.00000000000;2135.00000000000;2129.00000000000;2129.00000000000;2118.00000000000;2129.00000000000;2108.00000000000
Accel Z : 2684.00000000000;2652.00000000000;2648.00000000000;2682.00000000000;2669.00000000000;2677.00000000000;2671.00000000000;2662.00000000000;2673.00000000000;2684.00000000000;2662.00000000000;2665.00000000000;2674.00000000000;2682.00000000000;2653.00000000000;2666.00000000000;2663.00000000000;2671.00000000000;2664.00000000000;2669.00000000000;2679.00000000000;2680.00000000000;2662.00000000000;2635.00000000000;2672.00000000000;2683.00000000000;2684.00000000000;2638.00000000000;2652.00000000000;2658.00000000000;2658.00000000000;2639.00000000000;2670.00000000000;2680.00000000000;2623.00000000000;2613.00000000000;2650.00000000000;2647.00000000000;2639.00000000000;2645.00000000000;2674.00000000000;2624.00000000000;2602.00000000000;2620.00000000000;2624.00000000000;2624.00000000000;2643.00000000000;2629.00000000000;2575.00000000000;2563.00000000000;2534.00000000000;2528.00000000000;2450.00000000000;2438.00000000000;2383.00000000000;2353.00000000000;2341.00000000000;2283.00000000000;2224.00000000000;2196.00000000000;2152.00000000000;2087.00000000000;2081.00000000000;2031.00000000000;2020.00000000000;2058.00000000000;2023.00000000000;1967.00000000000;1961.00000000000;1939.00000000000;1931.00000000000;1963.00000000000;1959.00000000000;1964.00000000000;1910.00000000000;1901.00000000000;1915.00000000000;1917.00000000000;1933.00000000000;1912.00000000000;1905.00000000000;1873.00000000000;1833.00000000000;1816.00000000000;1778.00000000000;1745.00000000000;1727.00000000000;1721.00000000000;1701.00000000000;1756.00000000000;1812.00000000000;1714.00000000000;1662.00000000000;1715.00000000000;1692.00000000000;1737.00000000000;1779.00000000000;1745.00000000000;1680.00000000000;1652.00000000000;1591.00000000000;1673.00000000000;1995.00000000000;2277.00000000000;2174.00000000000;2165.00000000000;2204.00000000000;2230.00000000000;2382.00000000000;2541.00000000000;2539.00000000000;2481.00000000000;2501.00000000000;2526.00000000000;2567.00000000000;2624.00000000000;2587.00000000000;2606.00000000000;2626.00000000000;2590.00000000000;2616.00000000000;2616.00000000000;2622.00000000000;2630.00000000000;2667.00000000000;2653.00000000000;2654.00000000000;2677.00000000000;2686.00000000000;2673.00000000000;2678.00000000000;2698.00000000000;2691.00000000000;2682.00000000000;2699.00000000000;2719.00000000000;2687.00000000000;2674.00000000000;2691.00000000000;2691.00000000000;2674.00000000000;2682.00000000000;2691.00000000000;2695.00000000000;2658.00000000000;2677.00000000000;2668.00000000000;2660.00000000000;2673.00000000000;2672.00000000000
Gyro X : 1847.00000000000;1858.00000000000;1835.00000000000;1874.00000000000;1846.00000000000;1866.00000000000;1857.00000000000;1862.00000000000;1879.00000000000;1853.00000000000;1854.00000000000;1864.00000000000;1858.00000000000;1837.00000000000;1879.00000000000;1850.00000000000;1849.00000000000;1863.00000000000;1855.00000000000;1841.00000000000;1861.00000000000;1885.00000000000;1828.00000000000;1853.00000000000;1828.00000000000;1848.00000000000;1833.00000000000;1849.00000000000;1824.00000000000;1812.00000000000;1835.00000000000;1840.00000000000;1862.00000000000;1884.00000000000;1878.00000000000;1927.00000000000;1976.00000000000;1996.00000000000;2026.00000000000;2131.00000000000;2164.00000000000;2147.00000000000;2251.00000000000;2365.00000000000;2403.00000000000;2449.00000000000;2568.00000000000;2684.00000000000;2755.00000000000;2747.00000000000;2721.00000000000;2839.00000000000;2891.00000000000;2866.00000000000;2875.00000000000;2899.00000000000;2809.00000000000;2790.00000000000;2850.00000000000;2751.00000000000;2650.00000000000;2654.00000000000;2431.00000000000;2250.00000000000;2183.00000000000;2162.00000000000;2059.00000000000;1955.00000000000;1895.00000000000;1806.00000000000;1731.00000000000;1667.00000000000;1592.00000000000;1546.00000000000;1462.00000000000;1388.00000000000;1430.00000000000;1411.00000000000;1340.00000000000;1259.00000000000;1187.00000000000;1121.00000000000;1044.00000000000;1017.00000000000;963.000000000000;919.000000000000;900.000000000000;806.000000000000;745.000000000000;875.000000000000;984.000000000000;967.000000000000;972.000000000000;1096.00000000000;1328.00000000000;1549.00000000000;1615.00000000000;1775.00000000000;1941.00000000000;2054.00000000000;2170.00000000000;2414.00000000000;2964.00000000000;3476.00000000000;3554.00000000000;3448.00000000000;3139.00000000000;2750.00000000000;2744.00000000000;3100.00000000000;3230.00000000000;3199.00000000000;3055.00000000000;2813.00000000000;2773.00000000000;2735.00000000000;2580.00000000000;2419.00000000000;2363.00000000000;2306.00000000000;2101.00000000000;1940.00000000000;1955.00000000000;1964.00000000000;1938.00000000000;1983.00000000000;1951.00000000000;1922.00000000000;1958.00000000000;1907.00000000000;1882.00000000000;1900.00000000000;1921.00000000000;1900.00000000000;1927.00000000000;1955.00000000000;1973.00000000000;1916.00000000000;1909.00000000000;1937.00000000000;1933.00000000000;1875.00000000000;1916.00000000000;1898.00000000000;1882.00000000000;1907.00000000000;1937.00000000000;1869.00000000000;1922.00000000000;1926.00000000000
Gyro Y : 2163.00000000000;2157.00000000000;2122.00000000000;2161.00000000000;2155.00000000000;2147.00000000000;2159.00000000000;2138.00000000000;2155.00000000000;2160.00000000000;2131.00000000000;2147.00000000000;2145.00000000000;2165.00000000000;2159.00000000000;2156.00000000000;2157.00000000000;2137.00000000000;2156.00000000000;2151.00000000000;2161.00000000000;2143.00000000000;2151.00000000000;2166.00000000000;2181.00000000000;2163.00000000000;2159.00000000000;2168.00000000000;2161.00000000000;2152.00000000000;2158.00000000000;2151.00000000000;2154.00000000000;2168.00000000000;2155.00000000000;2140.00000000000;2142.00000000000;2133.00000000000;2126.00000000000;2105.00000000000;2106.00000000000;2119.00000000000;2115.00000000000;2104.00000000000;2105.00000000000;2095.00000000000;2063.00000000000;2069.00000000000;2034.00000000000;2019.00000000000;1983.00000000000;1981.00000000000;1946.00000000000;1932.00000000000;1886.00000000000;1790.00000000000;1782.00000000000;1715.00000000000;1667.00000000000;1595.00000000000;1538.00000000000;1510.00000000000;1475.00000000000;1369.00000000000;1336.00000000000;1409.00000000000;1338.00000000000;1287.00000000000;1315.00000000000;1340.00000000000;1313.00000000000;1271.00000000000;1260.00000000000;1315.00000000000;1287.00000000000;1268.00000000000;1296.00000000000;1310.00000000000;1361.00000000000;1350.00000000000;1378.00000000000;1368.00000000000;1387.00000000000;1399.00000000000;1413.00000000000;1402.00000000000;1443.00000000000;1433.00000000000;1421.00000000000;1478.00000000000;1519.00000000000;1445.00000000000;1399.00000000000;1443.00000000000;1442.00000000000;1470.00000000000;1443.00000000000;1485.00000000000;1532.00000000000;1675.00000000000;1897.00000000000;2292.00000000000;2689.00000000000;2762.00000000000;2389.00000000000;2213.00000000000;2180.00000000000;2058.00000000000;2065.00000000000;2023.00000000000;1967.00000000000;1987.00000000000;1977.00000000000;2008.00000000000;2043.00000000000;2049.00000000000;2096.00000000000;2067.00000000000;2093.00000000000;2127.00000000000;2079.00000000000;2102.00000000000;2100.00000000000;2131.00000000000;2113.00000000000;2122.00000000000;2114.00000000000;2097.00000000000;2122.00000000000;2137.00000000000;2119.00000000000;2099.00000000000;2112.00000000000;2123.00000000000;2095.00000000000;2133.00000000000;2107.00000000000;2128.00000000000;2123.00000000000;2132.00000000000;2134.00000000000;2132.00000000000;2140.00000000000;2159.00000000000;2135.00000000000;2129.00000000000;2129.00000000000;2118.00000000000;2129.00000000000;2108.00000000000
Gyro Z : 2684.00000000000;2652.00000000000;2648.00000000000;2682.00000000000;2669.00000000000;2677.00000000000;2671.00000000000;2662.00000000000;2673.00000000000;2684.00000000000;2662.00000000000;2665.00000000000;2674.00000000000;2682.00000000000;2653.00000000000;2666.00000000000;2663.00000000000;2671.00000000000;2664.00000000000;2669.00000000000;2679.00000000000;2680.00000000000;2662.00000000000;2635.00000000000;2672.00000000000;2683.00000000000;2684.00000000000;2638.00000000000;2652.00000000000;2658.00000000000;2658.00000000000;2639.00000000000;2670.00000000000;2680.00000000000;2623.00000000000;2613.00000000000;2650.00000000000;2647.00000000000;2639.00000000000;2645.00000000000;2674.00000000000;2624.00000000000;2602.00000000000;2620.00000000000;2624.00000000000;2624.00000000000;2643.00000000000;2629.00000000000;2575.00000000000;2563.00000000000;2534.00000000000;2528.00000000000;2450.00000000000;2438.00000000000;2383.00000000000;2353.00000000000;2341.00000000000;2283.00000000000;2224.00000000000;2196.00000000000;2152.00000000000;2087.00000000000;2081.00000000000;2031.00000000000;2020.00000000000;2058.00000000000;2023.00000000000;1967.00000000000;1961.00000000000;1939.00000000000;1931.00000000000;1963.00000000000;1959.00000000000;1964.00000000000;1910.00000000000;1901.00000000000;1915.00000000000;1917.00000000000;1933.00000000000;1912.00000000000;1905.00000000000;1873.00000000000;1833.00000000000;1816.00000000000;1778.00000000000;1745.00000000000;1727.00000000000;1721.00000000000;1701.00000000000;1756.00000000000;1812.00000000000;1714.00000000000;1662.00000000000;1715.00000000000;1692.00000000000;1737.00000000000;1779.00000000000;1745.00000000000;1680.00000000000;1652.00000000000;1591.00000000000;1673.00000000000;1995.00000000000;2277.00000000000;2174.00000000000;2165.00000000000;2204.00000000000;2230.00000000000;2382.00000000000;2541.00000000000;2539.00000000000;2481.00000000000;2501.00000000000;2526.00000000000;2567.00000000000;2624.00000000000;2587.00000000000;2606.00000000000;2626.00000000000;2590.00000000000;2616.00000000000;2616.00000000000;2622.00000000000;2630.00000000000;2667.00000000000;2653.00000000000;2654.00000000000;2677.00000000000;2686.00000000000;2673.00000000000;2678.00000000000;2698.00000000000;2691.00000000000;2682.00000000000;2699.00000000000;2719.00000000000;2687.00000000000;2674.00000000000;2691.00000000000;2691.00000000000;2674.00000000000;2682.00000000000;2691.00000000000;2695.00000000000;2658.00000000000;2677.00000000000;2668.00000000000;2660.00000000000;2673.00000000000;2672.00000000000
