COMMAND 1 SAMPLE 1
Accel X : 1806.00000000000;1810.00000000000;1809.00000000000;1796.00000000000;1810.00000000000;1823.00000000000;1778.00000000000;1796.00000000000;1815.00000000000;1839.00000000000;1810.00000000000;1764.00000000000;1798.00000000000;1822.00000000000;1759.00000000000;1767.00000000000;1775.00000000000;1759.00000000000;1762.00000000000;1746.00000000000;1762.00000000000;1770.00000000000;1762.00000000000;1758.00000000000;1732.00000000000;1749.00000000000;1682.00000000000;1708.00000000000;1733.00000000000;1759.00000000000;1870.00000000000;1903.00000000000;1976.00000000000;2050.00000000000;2178.00000000000;2302.00000000000;2268.00000000000;2200.00000000000;2254.00000000000;2320.00000000000;2343.00000000000;2500.00000000000;2529.00000000000;2359.00000000000;2202.00000000000;2207.00000000000;2210.00000000000;2160.00000000000;2101.00000000000;1997.00000000000;1900.00000000000;1849.00000000000;1900.00000000000;1851.00000000000;1813.00000000000;1731.00000000000;1606.00000000000;1468.00000000000;1363.00000000000;1303.00000000000;1237.00000000000;1158.00000000000;1083.00000000000;973.000000000000;839.000000000000;709.000000000000;644.000000000000;538.000000000000;506.000000000000;452.000000000000;470.000000000000;573.000000000000;642.000000000000;753.000000000000;879.000000000000;1009.00000000000;1143.00000000000;1281.00000000000;1422.00000000000;1631.00000000000;1936.00000000000;2123.00000000000;2240.00000000000;2382.00000000000;2664.00000000000;3220.00000000000;3538.00000000000;3496.00000000000;3237.00000000000;2947.00000000000;3169.00000000000;3503.00000000000;3438.00000000000;3185.00000000000;3123.00000000000;3115.00000000000;3203.00000000000;3180.00000000000;3048.00000000000;2879.00000000000;2699.00000000000;2574.00000000000;2380.00000000000;2009.00000000000;1766.00000000000;1787.00000000000;1767.00000000000;1742.00000000000;1901.00000000000;1981.00000000000;1943.00000000000;1800.00000000000;1813.00000000000;1902.00000000000;1931.00000000000;1842.00000000000;1758.00000000000;1795.00000000000;1821.00000000000;1741.00000000000;1751.00000000000;1836.00000000000;1849.00000000000;1839.00000000000;1900.00000000000;1829.00000000000;1796.00000000000;1837.00000000000;1888.00000000000;1819.00000000000;1807.00000000000;1872.00000000000;1841.00000000000;1812.00000000000;1863.00000000000;1861.00000000000;1815.00000000000;1852.00000000000;1873.00000000000;1837.00000000000;1834.00000000000;1863.00000000000;1874.00000000000;1844.00000000000;1839.00000000000;1880.00000000000;1824.00000000000;1815.00000000000;1827.00000000000;1841.00000000000
Accel Y : 2119.00000000000;2110.00000000000;2108.00000000000;2094.00000000000;2106.00000000000;2104.00000000000;2110.00000000000;2084.00000000000;2071.00000000000;2081.00000000000;2081.00000000000;2083.00000000000;2082.00000000000;2089.00000000000;2070.00000000000;2082.00000000000;2086.00000000000;2070.00000000000;2085.00000000000;2121.00000000000;2100.00000000000;2073.00000000000;2093.00000000000;2109.00000000000;2141.00000000000;2097.00000000000;2130.00000000000;2168.00000000000;2178.00000000000;2155.00000000000;2163.00000000000;2151.00000000000;2128.00000000000;2111.00000000000;2111.00000000000;2038.00000000000;1991.00000000000;1999.00000000000;1959.00000000000;1889.00000000000;1832.00000000000;1793.00000000000;1745.00000000000;1725.00000000000;1642.00000000000;1572.00000000000;1531.00000000000;1524.00000000000;1429.00000000000;1396.00000000000;1414.00000000000;1385.00000000000;1338.00000000000;1326.00000000000;1334.00000000000;1356.00000000000;1407.00000000000;1437.00000000000;1449.00000000000;1482.00000000000;1460.00000000000;1523.00000000000;1556.00000000000;1603.00000000000;1600.00000000000;1625.00000000000;1638.00000000000;1672.00000000000;1658.00000000000;1624.00000000000;1629.00000000000;1603.00000000000;1623.00000000000;1643.00000000000;1642.00000000000;1594.00000000000;1619.00000000000;1669.00000000000;1699.00000000000;1686.00000000000;1800.00000000000;1942.00000000000;2047.00000000000;2185.00000000000;2411.00000000000;2557.00000000000;2367.00000000000;2124.00000000000;2065.00000000000;2004.00000000000;1953.00000000000;1882.00000000000;1851.00000000000;1822.00000000000;1874.00000000000;1884.00000000000;1905.00000000000;1884.00000000000;1926.00000000000;1971.00000000000;1985.00000000000;1967.00000000000;2015.00000000000;2058.00000000000;2061.00000000000;2085.00000000000;2063.00000000000;2054.00000000000;2008.00000000000;2033.00000000000;2053.00000000000;2037.00000000000;2006.00000000000;2080.00000000000;2084.00000000000;2066.00000000000;2049.00000000000;2073.00000000000;2078.00000000000;2078.00000000000;2037.00000000000;2057.00000000000;2077.00000000000;2019.00000000000;2067.00000000000;2013.00000000000;2033.00000000000;2052.00000000000;2053.00000000000;2057.00000000000;2051.00000000000;2056.00000000000;2064.00000000000;2023.00000000000;2043.00000000000;2065.00000000000;2079.00000000000;2028.00000000000;2050.00000000000;2072.00000000000;2036.00000000000;2064.00000000000;2064.00000000000;2070.00000000000;2065.00000000000;2085.00000000000;2070.00000000000;2071.00000000000;2072.00000000000;2100.00000000000
Accel Z : 2674.00000000000;2687.00000000000;2672.00000000000;2673.00000000000;2682.00000000000;2695.00000000000;2699.00000000000;2653.00000000000;2672.00000000000;2686.00000000000;2667.00000000000;2648.00000000000;2651.00000000000;2667.00000000000;2656.00000000000;2635.00000000000;2642.00000000000;2663.00000000000;2669.00000000000;2655.00000000000;2668.00000000000;2646.00000000000;2657.00000000000;2677.00000000000;2673.00000000000;2721.00000000000;2703.00000000000;2758.00000000000;2753.00000000000;2772.00000000000;2789.00000000000;2873.00000000000;2873.00000000000;2911.00000000000;2882.00000000000;2880.00000000000;2894.00000000000;2907.00000000000;2850.00000000000;2791.00000000000;2741.00000000000;2685.00000000000;2659.00000000000;2585.00000000000;2445.00000000000;2373.00000000000;2327.00000000000;2232.00000000000;2119.00000000000;2060.00000000000;2033.00000000000;1995.00000000000;1977.00000000000;1993.00000000000;1931.00000000000;1895.00000000000;1871.00000000000;1844.00000000000;1799.00000000000;1757.00000000000;1716.00000000000;1731.00000000000;1715.00000000000;1689.00000000000;1715.00000000000;1723.00000000000;1687.00000000000;1657.00000000000;1638.00000000000;1617.00000000000;1620.00000000000;1625.00000000000;1590.00000000000;1641.00000000000;1678.00000000000;1675.00000000000;1702.00000000000;1755.00000000000;1653.00000000000;1629.00000000000;1683.00000000000;1723.00000000000;1751.00000000000;1571.00000000000;1674.00000000000;2101.00000000000;2105.00000000000;2043.00000000000;2106.00000000000;2065.00000000000;2185.00000000000;2347.00000000000;2354.00000000000;2267.00000000000;2325.00000000000;2336.00000000000;2339.00000000000;2353.00000000000;2355.00000000000;2329.00000000000;2265.00000000000;2311.00000000000;2580.00000000000;2439.00000000000;2423.00000000000;2562.00000000000;2657.00000000000;2684.00000000000;2702.00000000000;2778.00000000000;2700.00000000000;2646.00000000000;2680.00000000000;2751.00000000000;2718.00000000000;2697.00000000000;2685.00000000000;2688.00000000000;2714.00000000000;2668.00000000000;2664.00000000000;2682.00000000000;2674.00000000000;2652.00000000000;2676.00000000000;2648.00000000000;2661.00000000000;2657.00000000000;2666.00000000000;2661.00000000000;2669.00000000000;2682.00000000000;2688.00000000000;2650.00000000000;2677.00000000000;2697.00000000000;2665.00000000000;2673.00000000000;2685.00000000000;2664.00000000000;2660.00000000000;2666.00000000000;2691.00000000000;2671.00000000000;2659.00000000000;2675.00000000000;2675.00000000000;2664.00000000000;2648.00000000000;2677.00000000000
Gyro X : 1806.00000000000;1810.00000000000;1809.00000000000;1796.00000000000;1810.00000000000;1823.00000000000;1778.00000000000;1796.00000000000;1815.00000000000;1839.00000000000;1810.00000000000;1764.00000000000;1798.00000000000;1822.00000000000;1759.00000000000;1767.00000000000;1775.00000000000;1759.00000000000;1762.00000000000;1746.00000000000;1762.00000000000;1770.00000000000;1762.00000000000;1758.00000000000;1732.00000000000;1749.00000000000;1682.00000000000;1708.00000000000;1733.00000000000;1759.00000000000;1870.00000000000;1903.00000000000;1976.00000000000;2050.00000000000;2178.00000000000;2302.00000000000;2268.00000000000;2200.00000000000;2254.00000000000;2320.00000000000;2343.00000000000;2500.00000000000;2529.00000000000;2359.00000000000;2202.00000000000;2207.00000000000;2210.00000000000;2160.00000000000;2101.00000000000;1997.00000000000;1900.00000000000;1849.00000000000;1900.00000000000;1851.00000000000;1813.00000000000;1731.00000000000;1606.00000000000;1468.00000000000;1363.00000000000;1303.00000000000;1237.00000000000;1158.00000000000;1083.00000000000;973.000000000000;839.000000000000;709.000000000000;644.000000000000;538.000000000000;506.000000000000;452.000000000000;470.000000000000;573.000000000000;642.000000000000;753.000000000000;879.000000000000;1009.00000000000;1143.00000000000;1281.00000000000;1422.00000000000;1631.00000000000;1936.00000000000;2123.00000000000;2240.00000000000;2382.00000000000;2664.00000000000;3220.00000000000;3538.00000000000;3496.00000000000;3237.00000000000;2947.00000000000;3169.00000000000;3503.00000000000;3438.00000000000;3185.00000000000;3123.00000000000;3115.00000000000;3203.00000000000;3180.00000000000;3048.00000000000;2879.00000000000;2699.00000000000;2574.00000000000;2380.00000000000;2009.00000000000;1766.00000000000;1787.00000000000;1767.00000000000;1742.00000000000;1901.00000000000;1981.00000000000;1943.00000000000;1800.00000000000;1813.00000000000;1902.00000000000;1931.00000000000;1842.00000000000;1758.00000000000;1795.00000000000;1821.00000000000;1741.00000000000;1751.00000000000;1836.00000000000;1849.00000000000;1839.00000000000;1900.00000000000;1829.00000000000;1796.00000000000;1837.00000000000;1888.00000000000;1819.00000000000;1807.00000000000;1872.00000000000;1841.00000000000;1812.00000000000;1863.00000000000;1861.00000000000;1815.00000000000;1852.00000000000;1873.00000000000;1837.00000000000;1834.00000000000;1863.00000000000;1874.00000000000;1844.00000000000;1839.00000000000;1880.00000000000;1824.00000000000;1815.00000000000;1827.00000000000;1841.00000000000
Gyro Y : 2119.00000000000;2110.00000000000;2108.00000000000;2094.00000000000;2106.00000000000;2104.00000000000;2110.00000000000;2084.00000000000;2071.00000000000;2081.00000000000;2081.00000000000;2083.00000000000;2082.00000000000;2089.00000000000;2070.00000000000;2082.00000000000;2086.00000000000;2070.00000000000;2085.00000000000;2121.00000000000;2100.00000000000;2073.00000000000;2093.00000000000;2109.00000000000;2141.00000000000;2097.00000000000;2130.00000000000;2168.00000000000;2178.00000000000;2155.00000000000;2163.00000000000;2151.00000000000;2128.00000000000;2111.00000000000;2111.00000000000;2038.00000000000;1991.00000000000;1999.00000000000;1959.00000000000;1889.00000000000;1832.00000000000;1793.00000000000;1745.00000000000;1725.00000000000;1642.00000000000;1572.00000000000;1531.00000000000;1524.00000000000;1429.00000000000;1396.00000000000;1414.00000000000;1385.00000000000;1338.00000000000;1326.00000000000;1334.00000000000;1356.00000000000;1407.00000000000;1437.00000000000;1449.00000000000;1482.00000000000;1460.00000000000;1523.00000000000;1556.00000000000;1603.00000000000;1600.00000000000;1625.00000000000;1638.00000000000;1672.00000000000;1658.00000000000;1624.00000000000;1629.00000000000;1603.00000000000;1623.00000000000;1643.00000000000;1642.00000000000;1594.00000000000;1619.00000000000;1669.00000000000;1699.00000000000;1686.00000000000;1800.00000000000;1942.00000000000;2047.00000000000;2185.00000000000;2411.00000000000;2557.00000000000;2367.00000000000;2124.00000000000;2065.00000000000;2004.00000000000;1953.00000000000;1882.00000000000;1851.00000000000;1822.00000000000;1874.00000000000;1884.00000000000;1905.00000000000;1884.00000000000;1926.00000000000;1971.00000000000;1985.00000000000;1967.00000000000;2015.00000000000;2058.00000000000;2061.00000000000;2085.00000000000;2063.00000000000;2054.00000000000;2008.00000000000;2033.00000000000;2053.00000000000;2037.00000000000;2006.00000000000;2080.00000000000;2084.00000000000;2066.00000000000;2049.00000000000;2073.00000000000;2078.00000000000;2078.00000000000;2037.00000000000;2057.00000000000;2077.00000000000;2019.00000000000;2067.00000000000;2013.00000000000;2033.00000000000;2052.00000000000;2053.00000000000;2057.00000000000;2051.00000000000;2056.00000000000;2064.00000000000;2023.00000000000;2043.00000000000;2065.00000000000;2079.00000000000;2028.00000000000;2050.00000000000;2072.00000000000;2036.00000000000;2064.00000000000;2064.00000000000;2070.00000000000;2065.00000000000;2085.00000000000;2070.00000000000;2071.00000000000;2072.00000000000;2100.00000000000
Gyro Z : 2674.00000000000;2687.00000000000;2672.00000000000;2673.00000000000;2682.00000000000;2695.00000000000;2699.00000000000;2653.00000000000;2672.00000000000;2686.00000000000;2667.00000000000;2648.00000000000;2651.00000000000;2667.00000000000;2656.00000000000;2635.00000000000;2642.00000000000;2663.00000000000;2669.00000000000;2655.00000000000;2668.00000000000;2646.00000000000;2657.00000000000;2677.00000000000;2673.00000000000;2721.00000000000;2703.00000000000;2758.00000000000;2753.00000000000;2772.00000000000;2789.00000000000;2873.00000000000;2873.00000000000;2911.00000000000;2882.00000000000;2880.00000000000;2894.00000000000;2907.00000000000;2850.00000000000;2791.00000000000;2741.00000000000;2685.00000000000;2659.00000000000;2585.00000000000;2445.00000000000;2373.00000000000;2327.00000000000;2232.00000000000;2119.00000000000;2060.00000000000;2033.00000000000;1995.00000000000;1977.00000000000;1993.00000000000;1931.00000000000;1895.00000000000;1871.00000000000;1844.00000000000;1799.00000000000;1757.00000000000;1716.00000000000;1731.00000000000;1715.00000000000;1689.00000000000;1715.00000000000;1723.00000000000;1687.00000000000;1657.00000000000;1638.00000000000;1617.00000000000;1620.00000000000;1625.00000000000;1590.00000000000;1641.00000000000;1678.00000000000;1675.00000000000;1702.00000000000;1755.00000000000;1653.00000000000;1629.00000000000;1683.00000000000;1723.00000000000;1751.00000000000;1571.00000000000;1674.00000000000;2101.00000000000;2105.00000000000;2043.00000000000;2106.00000000000;2065.00000000000;2185.00000000000;2347.00000000000;2354.00000000000;2267.00000000000;2325.00000000000;2336.00000000000;2339.00000000000;2353.00000000000;2355.00000000000;2329.00000000000;2265.00000000000;2311.00000000000;2580.00000000000;2439.00000000000;2423.00000000000;2562.00000000000;2657.00000000000;2684.00000000000;2702.00000000000;2778.00000000000;2700.00000000000;2646.00000000000;2680.00000000000;2751.00000000000;2718.00000000000;2697.00000000000;2685.00000000000;2688.00000000000;2714.00000000000;2668.00000000000;2664.00000000000;2682.00000000000;2674.00000000000;2652.00000000000;2676.00000000000;2648.00000000000;2661.00000000000;2657.00000000000;2666.00000000000;2661.00000000000;2669.00000000000;2682.00000000000;2688.00000000000;2650.00000000000;2677.00000000000;2697.00000000000;2665.00000000000;2673.00000000000;2685.00000000000;2664.00000000000;2660.00000000000;2666.00000000000;2691.00000000000;2671.00000000000;2659.00000000000;2675.00000000000;2675.00000000000;2664.00000000000;2648.00000000000;2677.00000000000
