COMMAND 3 SAMPLE 1
Accel X : 1729.00000000000;1748.00000000000;1719.00000000000;1767.00000000000;1754.00000000000;1730.00000000000;1728.00000000000;1753.00000000000;1737.00000000000;1719.00000000000;1732.00000000000;1732.00000000000;1723.00000000000;1726.00000000000;1729.00000000000;1752.00000000000;1744.00000000000;1735.00000000000;1743.00000000000;1731.00000000000;1733.00000000000;1757.00000000000;1733.00000000000;1754.00000000000;1732.00000000000;1739.00000000000;1724.00000000000;1737.00000000000;1728.00000000000;1746.00000000000;1737.00000000000;1743.00000000000;1757.00000000000;1782.00000000000;1740.00000000000;1714.00000000000;1685.00000000000;1618.00000000000;1594.00000000000;1640.00000000000;1724.00000000000;1811.00000000000;1985.00000000000;2180.00000000000;2387.00000000000;2782.00000000000;3157.00000000000;3342.00000000000;3550.00000000000;3727.00000000000;3771.00000000000;3648.00000000000;3517.00000000000;3464.00000000000;3475.00000000000;3429.00000000000;3386.00000000000;3345.00000000000;3191.00000000000;3056.00000000000;2893.00000000000;2884.00000000000;2743.00000000000;2710.00000000000;2599.00000000000;2496.00000000000;2355.00000000000;2244.00000000000;2129.00000000000;2063.00000000000;1974.00000000000;1823.00000000000;1690.00000000000;1595.00000000000;1516.00000000000;1419.00000000000;1421.00000000000;1312.00000000000;1328.00000000000;1322.00000000000;1295.00000000000;1310.00000000000;1368.00000000000;1471.00000000000;1487.00000000000;1508.00000000000;1546.00000000000;1549.00000000000;1672.00000000000;1827.00000000000;1822.00000000000;1745.00000000000;1609.00000000000;1486.00000000000;1458.00000000000;1472.00000000000;1504.00000000000;1579.00000000000;1584.00000000000;1631.00000000000;1704.00000000000;1786.00000000000;1823.00000000000;1805.00000000000;1797.00000000000;1835.00000000000;1812.00000000000;1854.00000000000;2012.00000000000;1977.00000000000;1948.00000000000;2011.00000000000;2000.00000000000;1922.00000000000;1940.00000000000;2016.00000000000;2005.00000000000;2015.00000000000;2009.00000000000;2023.00000000000;2031.00000000000;2000.00000000000;1921.00000000000;1975.00000000000;1946.00000000000;1930.00000000000;1940.00000000000;1976.00000000000;1944.00000000000;1923.00000000000;1886.00000000000;1923.00000000000;1944.00000000000;1941.00000000000;1937.00000000000;1956.00000000000;1933.00000000000;1952.00000000000;1944.00000000000;1928.00000000000;1897.00000000000;1918.00000000000;1898.00000000000;1903.00000000000;1914.00000000000;1907.00000000000;1892.00000000000;1882.00000000000;1903.00000000000;1900.00000000000
Accel Y : 2091.00000000000;2115.00000000000;2098.00000000000;2115.00000000000;2118.00000000000;2106.00000000000;2110.00000000000;2107.00000000000;2114.00000000000;2110.00000000000;2103.00000000000;2125.00000000000;2112.00000000000;2114.00000000000;2111.00000000000;2114.00000000000;2113.00000000000;2097.00000000000;2114.00000000000;2125.00000000000;2151.00000000000;2095.00000000000;2111.00000000000;2105.00000000000;2122.00000000000;2123.00000000000;2127.00000000000;2127.00000000000;2108.00000000000;2095.00000000000;2082.00000000000;2103.00000000000;2103.00000000000;2090.00000000000;2118.00000000000;2094.00000000000;2129.00000000000;2128.00000000000;2154.00000000000;2097.00000000000;2045.00000000000;2029.00000000000;2058.00000000000;2026.00000000000;2040.00000000000;2025.00000000000;1950.00000000000;1877.00000000000;1796.00000000000;1719.00000000000;1713.00000000000;1684.00000000000;1654.00000000000;1640.00000000000;1655.00000000000;1627.00000000000;1621.00000000000;1627.00000000000;1645.00000000000;1672.00000000000;1636.00000000000;1637.00000000000;1615.00000000000;1629.00000000000;1630.00000000000;1646.00000000000;1707.00000000000;1754.00000000000;1737.00000000000;1677.00000000000;1654.00000000000;1616.00000000000;1619.00000000000;1564.00000000000;1509.00000000000;1467.00000000000;1449.00000000000;1388.00000000000;1351.00000000000;1317.00000000000;1324.00000000000;1329.00000000000;1336.00000000000;1315.00000000000;1323.00000000000;1355.00000000000;1332.00000000000;1293.00000000000;1320.00000000000;1327.00000000000;1290.00000000000;1183.00000000000;1165.00000000000;1217.00000000000;1205.00000000000;1173.00000000000;1268.00000000000;1416.00000000000;1386.00000000000;1351.00000000000;1421.00000000000;1512.00000000000;1493.00000000000;1505.00000000000;1619.00000000000;1688.00000000000;1689.00000000000;1658.00000000000;1835.00000000000;1848.00000000000;1864.00000000000;1916.00000000000;1944.00000000000;1982.00000000000;1966.00000000000;2046.00000000000;2110.00000000000;2116.00000000000;2100.00000000000;2127.00000000000;2150.00000000000;2144.00000000000;2112.00000000000;2151.00000000000;2158.00000000000;2160.00000000000;2174.00000000000;2143.00000000000;2136.00000000000;2125.00000000000;2108.00000000000;2128.00000000000;2155.00000000000;2135.00000000000;2125.00000000000;2139.00000000000;2129.00000000000;2127.00000000000;2121.00000000000;2106.00000000000;2134.00000000000;2100.00000000000;2142.00000000000;2105.00000000000;2115.00000000000;2118.00000000000;2120.00000000000;2105.00000000000;2115.00000000000;2110.00000000000
Accel Z : 2616.00000000000;2659.00000000000;2669.00000000000;2645.00000000000;2651.00000000000;2655.00000000000;2637.00000000000;2649.00000000000;2636.00000000000;2645.00000000000;2657.00000000000;2666.00000000000;2660.00000000000;2652.00000000000;2687.00000000000;2666.00000000000;2651.00000000000;2651.00000000000;2671.00000000000;2619.00000000000;2663.00000000000;2655.00000000000;2657.00000000000;2645.00000000000;2660.00000000000;2671.00000000000;2654.00000000000;2629.00000000000;2631.00000000000;2632.00000000000;2618.00000000000;2630.00000000000;2614.00000000000;2610.00000000000;2614.00000000000;2601.00000000000;2619.00000000000;2638.00000000000;2581.00000000000;2558.00000000000;2543.00000000000;2528.00000000000;2497.00000000000;2431.00000000000;2326.00000000000;2200.00000000000;2081.00000000000;1910.00000000000;1654.00000000000;1641.00000000000;1521.00000000000;1507.00000000000;1531.00000000000;1519.00000000000;1461.00000000000;1347.00000000000;1302.00000000000;1310.00000000000;1262.00000000000;1243.00000000000;1306.00000000000;1299.00000000000;1352.00000000000;1380.00000000000;1413.00000000000;1450.00000000000;1532.00000000000;1600.00000000000;1584.00000000000;1631.00000000000;1670.00000000000;1687.00000000000;1754.00000000000;1799.00000000000;1861.00000000000;1906.00000000000;1972.00000000000;2015.00000000000;2062.00000000000;2024.00000000000;2039.00000000000;2075.00000000000;2105.00000000000;2092.00000000000;2068.00000000000;2038.00000000000;2049.00000000000;2032.00000000000;2080.00000000000;2029.00000000000;1915.00000000000;1725.00000000000;1599.00000000000;1602.00000000000;1637.00000000000;1650.00000000000;1693.00000000000;1784.00000000000;1783.00000000000;1879.00000000000;1898.00000000000;1946.00000000000;2054.00000000000;2134.00000000000;2202.00000000000;2199.00000000000;2276.00000000000;2358.00000000000;2419.00000000000;2546.00000000000;2586.00000000000;2649.00000000000;2719.00000000000;2767.00000000000;2886.00000000000;2977.00000000000;3065.00000000000;3096.00000000000;3119.00000000000;3087.00000000000;3142.00000000000;3120.00000000000;3073.00000000000;3047.00000000000;3085.00000000000;3018.00000000000;2958.00000000000;2931.00000000000;2886.00000000000;2824.00000000000;2790.00000000000;2807.00000000000;2776.00000000000;2743.00000000000;2703.00000000000;2712.00000000000;2676.00000000000;2649.00000000000;2672.00000000000;2677.00000000000;2675.00000000000;2664.00000000000;2657.00000000000;2660.00000000000;2683.00000000000;2645.00000000000;2673.00000000000;2663.00000000000;2683.00000000000;2664.00000000000
Gyro X : 1729.00000000000;1748.00000000000;1719.00000000000;1767.00000000000;1754.00000000000;1730.00000000000;1728.00000000000;1753.00000000000;1737.00000000000;1719.00000000000;1732.00000000000;1732.00000000000;1723.00000000000;1726.00000000000;1729.00000000000;1752.00000000000;1744.00000000000;1735.00000000000;1743.00000000000;1731.00000000000;1733.00000000000;1757.00000000000;1733.00000000000;1754.00000000000;1732.00000000000;1739.00000000000;1724.00000000000;1737.00000000000;1728.00000000000;1746.00000000000;1737.00000000000;1743.00000000000;1757.00000000000;1782.00000000000;1740.00000000000;1714.00000000000;1685.00000000000;1618.00000000000;1594.00000000000;1640.00000000000;1724.00000000000;1811.00000000000;1985.00000000000;2180.00000000000;2387.00000000000;2782.00000000000;3157.00000000000;3342.00000000000;3550.00000000000;3727.00000000000;3771.00000000000;3648.00000000000;3517.00000000000;3464.00000000000;3475.00000000000;3429.00000000000;3386.00000000000;3345.00000000000;3191.00000000000;3056.00000000000;2893.00000000000;2884.00000000000;2743.00000000000;2710.00000000000;2599.00000000000;2496.00000000000;2355.00000000000;2244.00000000000;2129.00000000000;2063.00000000000;1974.00000000000;1823.00000000000;1690.00000000000;1595.00000000000;1516.00000000000;1419.00000000000;1421.00000000000;1312.00000000000;1328.00000000000;1322.00000000000;1295.00000000000;1310.00000000000;1368.00000000000;1471.00000000000;1487.00000000000;1508.00000000000;1546.00000000000;1549.00000000000;1672.00000000000;1827.00000000000;1822.00000000000;1745.00000000000;1609.00000000000;1486.00000000000;1458.00000000000;1472.00000000000;1504.00000000000;1579.00000000000;1584.00000000000;1631.00000000000;1704.00000000000;1786.00000000000;1823.00000000000;1805.00000000000;1797.00000000000;1835.00000000000;1812.00000000000;1854.00000000000;2012.00000000000;1977.00000000000;1948.00000000000;2011.00000000000;2000.00000000000;1922.00000000000;1940.00000000000;2016.00000000000;2005.00000000000;2015.00000000000;2009.00000000000;2023.00000000000;2031.00000000000;2000.00000000000;1921.00000000000;1975.00000000000;1946.00000000000;1930.00000000000;1940.00000000000;1976.00000000000;1944.00000000000;1923.00000000000;1886.00000000000;1923.00000000000;1944.00000000000;1941.00000000000;1937.00000000000;1956.00000000000;1933.00000000000;1952.00000000000;1944.00000000000;1928.00000000000;1897.00000000000;1918.00000000000;1898.00000000000;1903.00000000000;1914.00000000000;1907.00000000000;1892.00000000000;1882.00000000000;1903.00000000000;1900.00000000000
Gyro Y : 2091.00000000000;2115.00000000000;2098.00000000000;2115.00000000000;2118.00000000000;2106.00000000000;2110.00000000000;2107.00000000000;2114.00000000000;2110.00000000000;2103.00000000000;2125.00000000000;2112.00000000000;2114.00000000000;2111.00000000000;2114.00000000000;2113.00000000000;2097.00000000000;2114.00000000000;2125.00000000000;2151.00000000000;2095.00000000000;2111.00000000000;2105.00000000000;2122.00000000000;2123.00000000000;2127.00000000000;2127.00000000000;2108.00000000000;2095.00000000000;2082.00000000000;2103.00000000000;2103.00000000000;2090.00000000000;2118.00000000000;2094.00000000000;2129.00000000000;2128.00000000000;2154.00000000000;2097.00000000000;2045.00000000000;2029.00000000000;2058.00000000000;2026.00000000000;2040.00000000000;2025.00000000000;1950.00000000000;1877.00000000000;1796.00000000000;1719.00000000000;1713.00000000000;1684.00000000000;1654.00000000000;1640.00000000000;1655.00000000000;1627.00000000000;1621.00000000000;1627.00000000000;1645.00000000000;1672.00000000000;1636.00000000000;1637.00000000000;1615.00000000000;1629.00000000000;1630.00000000000;1646.00000000000;1707.00000000000;1754.00000000000;1737.00000000000;1677.00000000000;1654.00000000000;1616.00000000000;1619.00000000000;1564.00000000000;1509.00000000000;1467.00000000000;1449.00000000000;1388.00000000000;1351.00000000000;1317.00000000000;1324.00000000000;1329.00000000000;1336.00000000000;1315.00000000000;1323.00000000000;1355.00000000000;1332.00000000000;1293.00000000000;1320.00000000000;1327.00000000000;1290.00000000000;1183.00000000000;1165.00000000000;1217.00000000000;1205.00000000000;1173.00000000000;1268.00000000000;1416.00000000000;1386.00000000000;1351.00000000000;1421.00000000000;1512.00000000000;1493.00000000000;1505.00000000000;1619.00000000000;1688.00000000000;1689.00000000000;1658.00000000000;1835.00000000000;1848.00000000000;1864.00000000000;1916.00000000000;1944.00000000000;1982.00000000000;1966.00000000000;2046.00000000000;2110.00000000000;2116.00000000000;2100.00000000000;2127.00000000000;2150.00000000000;2144.00000000000;2112.00000000000;2151.00000000000;2158.00000000000;2160.00000000000;2174.00000000000;2143.00000000000;2136.00000000000;2125.00000000000;2108.00000000000;2128.00000000000;2155.00000000000;2135.00000000000;2125.00000000000;2139.00000000000;2129.00000000000;2127.00000000000;2121.00000000000;2106.00000000000;2134.00000000000;2100.00000000000;2142.00000000000;2105.00000000000;2115.00000000000;2118.00000000000;2120.00000000000;2105.00000000000;2115.00000000000;2110.00000000000
Gyro Z : 2616.00000000000;2659.00000000000;2669.00000000000;2645.00000000000;2651.00000000000;2655.00000000000;2637.00000000000;2649.00000000000;2636.00000000000;2645.00000000000;2657.00000000000;2666.00000000000;2660.00000000000;2652.00000000000;2687.00000000000;2666.00000000000;2651.00000000000;2651.00000000000;2671.00000000000;2619.00000000000;2663.00000000000;2655.00000000000;2657.00000000000;2645.00000000000;2660.00000000000;2671.00000000000;2654.00000000000;2629.00000000000;2631.00000000000;2632.00000000000;2618.00000000000;2630.00000000000;2614.00000000000;2610.00000000000;2614.00000000000;2601.00000000000;2619.00000000000;2638.00000000000;2581.00000000000;2558.00000000000;2543.00000000000;2528.00000000000;2497.00000000000;2431.00000000000;2326.00000000000;2200.00000000000;2081.00000000000;1910.00000000000;1654.00000000000;1641.00000000000;1521.00000000000;1507.00000000000;1531.00000000000;1519.00000000000;1461.00000000000;1347.00000000000;1302.00000000000;1310.00000000000;1262.00000000000;1243.00000000000;1306.00000000000;1299.00000000000;1352.00000000000;1380.00000000000;1413.00000000000;1450.00000000000;1532.00000000000;1600.00000000000;1584.00000000000;1631.00000000000;1670.00000000000;1687.00000000000;1754.00000000000;1799.00000000000;1861.00000000000;1906.00000000000;1972.00000000000;2015.00000000000;2062.00000000000;2024.00000000000;2039.00000000000;2075.00000000000;2105.00000000000;2092.00000000000;2068.00000000000;2038.00000000000;2049.00000000000;2032.00000000000;2080.00000000000;2029.00000000000;1915.00000000000;1725.00000000000;1599.00000000000;1602.00000000000;1637.00000000000;1650.00000000000;1693.00000000000;1784.00000000000;1783.00000000000;1879.00000000000;1898.00000000000;1946.00000000000;2054.00000000000;2134.00000000000;2202.00000000000;2199.00000000000;2276.00000000000;2358.00000000000;2419.00000000000;2546.00000000000;2586.00000000000;2649.00000000000;2719.00000000000;2767.00000000000;2886.00000000000;2977.00000000000;3065.00000000000;3096.00000000000;3119.00000000000;3087.00000000000;3142.00000000000;3120.00000000000;3073.00000000000;3047.00000000000;3085.00000000000;3018.00000000000;2958.00000000000;2931.00000000000;2886.00000000000;2824.00000000000;2790.00000000000;2807.00000000000;2776.00000000000;2743.00000000000;2703.00000000000;2712.00000000000;2676.00000000000;2649.00000000000;2672.00000000000;2677.00000000000;2675.00000000000;2664.00000000000;2657.00000000000;2660.00000000000;2683.00000000000;2645.00000000000;2673.00000000000;2663.00000000000;2683.00000000000;2664.00000000000
