COMMAND 4 SAMPLE 1
Accel X : 1777.00000000000;1801.00000000000;1853.00000000000;1835.00000000000;1788.00000000000;1801.00000000000;1813.00000000000;1824.00000000000;1834.00000000000;1800.00000000000;1766.00000000000;1801.00000000000;1835.00000000000;1813.00000000000;1811.00000000000;1781.00000000000;1810.00000000000;1810.00000000000;1764.00000000000;1787.00000000000;1791.00000000000;1815.00000000000;1783.00000000000;1774.00000000000;1794.00000000000;1821.00000000000;1823.00000000000;1812.00000000000;1785.00000000000;1816.00000000000;1845.00000000000;1887.00000000000;1961.00000000000;2005.00000000000;1965.00000000000;1935.00000000000;1837.00000000000;1832.00000000000;1858.00000000000;1884.00000000000;1860.00000000000;1975.00000000000;2047.00000000000;2071.00000000000;2054.00000000000;2111.00000000000;2099.00000000000;2148.00000000000;2190.00000000000;2140.00000000000;2153.00000000000;2213.00000000000;2200.00000000000;2141.00000000000;2163.00000000000;2197.00000000000;2246.00000000000;2243.00000000000;2183.00000000000;2134.00000000000;2227.00000000000;2198.00000000000;2113.00000000000;2086.00000000000;2102.00000000000;2150.00000000000;2151.00000000000;2159.00000000000;2094.00000000000;2050.00000000000;2063.00000000000;2127.00000000000;2082.00000000000;2071.00000000000;2064.00000000000;2059.00000000000;2072.00000000000;2106.00000000000;2111.00000000000;2081.00000000000;2095.00000000000;2105.00000000000;2100.00000000000;2156.00000000000;2119.00000000000;2171.00000000000;2185.00000000000;2167.00000000000;2121.00000000000;2159.00000000000;2221.00000000000;2236.00000000000;2237.00000000000;2195.00000000000;2144.00000000000;2183.00000000000;2225.00000000000;2143.00000000000;2106.00000000000;2086.00000000000;2144.00000000000;2136.00000000000;2053.00000000000;2055.00000000000;2057.00000000000;1998.00000000000;1957.00000000000;1931.00000000000;1941.00000000000;1911.00000000000;1870.00000000000;1817.00000000000;1845.00000000000;1843.00000000000;1817.00000000000;1810.00000000000;1769.00000000000;1719.00000000000;1711.00000000000;1753.00000000000;1745.00000000000;1731.00000000000;1674.00000000000;1745.00000000000;1770.00000000000;1693.00000000000;1729.00000000000;1822.00000000000;1779.00000000000;1779.00000000000;1831.00000000000;1853.00000000000;1798.00000000000;1821.00000000000;1819.00000000000;1836.00000000000;1832.00000000000;1852.00000000000;1837.00000000000;1825.00000000000;1835.00000000000;1871.00000000000;1856.00000000000;1843.00000000000;1878.00000000000;1871.00000000000;1843.00000000000;1878.00000000000;1868.00000000000;1840.00000000000
Accel Y : 1997.00000000000;1997.00000000000;1987.00000000000;1987.00000000000;2016.00000000000;1993.00000000000;1995.00000000000;1979.00000000000;1990.00000000000;1985.00000000000;1979.00000000000;1976.00000000000;2021.00000000000;2001.00000000000;1990.00000000000;1970.00000000000;1980.00000000000;1970.00000000000;2007.00000000000;1990.00000000000;1993.00000000000;1972.00000000000;1994.00000000000;1980.00000000000;1973.00000000000;1996.00000000000;1993.00000000000;1992.00000000000;1978.00000000000;1989.00000000000;2008.00000000000;2044.00000000000;2054.00000000000;2051.00000000000;2071.00000000000;2110.00000000000;2106.00000000000;2128.00000000000;2226.00000000000;2340.00000000000;2409.00000000000;2498.00000000000;2610.00000000000;2734.00000000000;2883.00000000000;2975.00000000000;2991.00000000000;3052.00000000000;3151.00000000000;3239.00000000000;3279.00000000000;3267.00000000000;3290.00000000000;3337.00000000000;3349.00000000000;3281.00000000000;3259.00000000000;3311.00000000000;3287.00000000000;3283.00000000000;3211.00000000000;3220.00000000000;3215.00000000000;3184.00000000000;3158.00000000000;3117.00000000000;3121.00000000000;3100.00000000000;3133.00000000000;3106.00000000000;3078.00000000000;3097.00000000000;3101.00000000000;3120.00000000000;3129.00000000000;3161.00000000000;3146.00000000000;3199.00000000000;3211.00000000000;3242.00000000000;3255.00000000000;3247.00000000000;3284.00000000000;3289.00000000000;3273.00000000000;3287.00000000000;3274.00000000000;3282.00000000000;3309.00000000000;3286.00000000000;3241.00000000000;3264.00000000000;3223.00000000000;3176.00000000000;3147.00000000000;3112.00000000000;3025.00000000000;2954.00000000000;2938.00000000000;2881.00000000000;2717.00000000000;2633.00000000000;2595.00000000000;2520.00000000000;2425.00000000000;2343.00000000000;2272.00000000000;2207.00000000000;2135.00000000000;2121.00000000000;2100.00000000000;2015.00000000000;1929.00000000000;1954.00000000000;1950.00000000000;1885.00000000000;1919.00000000000;1935.00000000000;1901.00000000000;1897.00000000000;1920.00000000000;1935.00000000000;1879.00000000000;1891.00000000000;1931.00000000000;1945.00000000000;1919.00000000000;1938.00000000000;1955.00000000000;1976.00000000000;1943.00000000000;1951.00000000000;1946.00000000000;1989.00000000000;1974.00000000000;1999.00000000000;1960.00000000000;1996.00000000000;1975.00000000000;1994.00000000000;1958.00000000000;1997.00000000000;1981.00000000000;1954.00000000000;1963.00000000000;1969.00000000000;1973.00000000000;1966.00000000000;1949.00000000000;1966.00000000000
Accel Z : 2669.00000000000;2671.00000000000;2691.00000000000;2683.00000000000;2676.00000000000;2669.00000000000;2692.00000000000;2690.00000000000;2688.00000000000;2657.00000000000;2672.00000000000;2653.00000000000;2671.00000000000;2615.00000000000;2659.00000000000;2623.00000000000;2644.00000000000;2659.00000000000;2643.00000000000;2639.00000000000;2660.00000000000;2643.00000000000;2625.00000000000;2624.00000000000;2629.00000000000;2606.00000000000;2583.00000000000;2545.00000000000;2491.00000000000;2430.00000000000;2309.00000000000;2168.00000000000;1967.00000000000;1853.00000000000;1859.00000000000;1878.00000000000;1861.00000000000;1912.00000000000;1982.00000000000;2051.00000000000;2089.00000000000;2167.00000000000;2212.00000000000;2247.00000000000;2302.00000000000;2361.00000000000;2447.00000000000;2449.00000000000;2472.00000000000;2512.00000000000;2574.00000000000;2583.00000000000;2527.00000000000;2476.00000000000;2467.00000000000;2454.00000000000;2432.00000000000;2407.00000000000;2366.00000000000;2340.00000000000;2343.00000000000;2293.00000000000;2258.00000000000;2231.00000000000;2193.00000000000;2129.00000000000;2137.00000000000;2096.00000000000;2069.00000000000;2014.00000000000;1992.00000000000;2011.00000000000;2014.00000000000;2042.00000000000;2115.00000000000;2134.00000000000;2144.00000000000;2217.00000000000;2264.00000000000;2271.00000000000;2291.00000000000;2335.00000000000;2345.00000000000;2347.00000000000;2346.00000000000;2347.00000000000;2329.00000000000;2365.00000000000;2359.00000000000;2324.00000000000;2391.00000000000;2449.00000000000;2385.00000000000;2346.00000000000;2404.00000000000;2386.00000000000;2384.00000000000;2417.00000000000;2339.00000000000;2319.00000000000;2267.00000000000;2291.00000000000;2267.00000000000;2213.00000000000;2192.00000000000;2176.00000000000;2128.00000000000;2101.00000000000;2141.00000000000;2163.00000000000;2145.00000000000;2126.00000000000;2133.00000000000;2208.00000000000;2250.00000000000;2281.00000000000;2325.00000000000;2363.00000000000;2375.00000000000;2416.00000000000;2468.00000000000;2460.00000000000;2513.00000000000;2564.00000000000;2587.00000000000;2539.00000000000;2586.00000000000;2650.00000000000;2643.00000000000;2624.00000000000;2641.00000000000;2663.00000000000;2675.00000000000;2692.00000000000;2699.00000000000;2700.00000000000;2710.00000000000;2731.00000000000;2713.00000000000;2727.00000000000;2719.00000000000;2737.00000000000;2712.00000000000;2695.00000000000;2689.00000000000;2707.00000000000;2689.00000000000;2679.00000000000;2653.00000000000;2643.00000000000
Gyro X : 1777.00000000000;1801.00000000000;1853.00000000000;1835.00000000000;1788.00000000000;1801.00000000000;1813.00000000000;1824.00000000000;1834.00000000000;1800.00000000000;1766.00000000000;1801.00000000000;1835.00000000000;1813.00000000000;1811.00000000000;1781.00000000000;1810.00000000000;1810.00000000000;1764.00000000000;1787.00000000000;1791.00000000000;1815.00000000000;1783.00000000000;1774.00000000000;1794.00000000000;1821.00000000000;1823.00000000000;1812.00000000000;1785.00000000000;1816.00000000000;1845.00000000000;1887.00000000000;1961.00000000000;2005.00000000000;1965.00000000000;1935.00000000000;1837.00000000000;1832.00000000000;1858.00000000000;1884.00000000000;1860.00000000000;1975.00000000000;2047.00000000000;2071.00000000000;2054.00000000000;2111.00000000000;2099.00000000000;2148.00000000000;2190.00000000000;2140.00000000000;2153.00000000000;2213.00000000000;2200.00000000000;2141.00000000000;2163.00000000000;2197.00000000000;2246.00000000000;2243.00000000000;2183.00000000000;2134.00000000000;2227.00000000000;2198.00000000000;2113.00000000000;2086.00000000000;2102.00000000000;2150.00000000000;2151.00000000000;2159.00000000000;2094.00000000000;2050.00000000000;2063.00000000000;2127.00000000000;2082.00000000000;2071.00000000000;2064.00000000000;2059.00000000000;2072.00000000000;2106.00000000000;2111.00000000000;2081.00000000000;2095.00000000000;2105.00000000000;2100.00000000000;2156.00000000000;2119.00000000000;2171.00000000000;2185.00000000000;2167.00000000000;2121.00000000000;2159.00000000000;2221.00000000000;2236.00000000000;2237.00000000000;2195.00000000000;2144.00000000000;2183.00000000000;2225.00000000000;2143.00000000000;2106.00000000000;2086.00000000000;2144.00000000000;2136.00000000000;2053.00000000000;2055.00000000000;2057.00000000000;1998.00000000000;1957.00000000000;1931.00000000000;1941.00000000000;1911.00000000000;1870.00000000000;1817.00000000000;1845.00000000000;1843.00000000000;1817.00000000000;1810.00000000000;1769.00000000000;1719.00000000000;1711.00000000000;1753.00000000000;1745.00000000000;1731.00000000000;1674.00000000000;1745.00000000000;1770.00000000000;1693.00000000000;1729.00000000000;1822.00000000000;1779.00000000000;1779.00000000000;1831.00000000000;1853.00000000000;1798.00000000000;1821.00000000000;1819.00000000000;1836.00000000000;1832.00000000000;1852.00000000000;1837.00000000000;1825.00000000000;1835.00000000000;1871.00000000000;1856.00000000000;1843.00000000000;1878.00000000000;1871.00000000000;1843.00000000000;1878.00000000000;1868.00000000000;1840.00000000000
Gyro Y : 1997.00000000000;1997.00000000000;1987.00000000000;1987.00000000000;2016.00000000000;1993.00000000000;1995.00000000000;1979.00000000000;1990.00000000000;1985.00000000000;1979.00000000000;1976.00000000000;2021.00000000000;2001.00000000000;1990.00000000000;1970.00000000000;1980.00000000000;1970.00000000000;2007.00000000000;1990.00000000000;1993.00000000000;1972.00000000000;1994.00000000000;1980.00000000000;1973.00000000000;1996.00000000000;1993.00000000000;1992.00000000000;1978.00000000000;1989.00000000000;2008.00000000000;2044.00000000000;2054.00000000000;2051.00000000000;2071.00000000000;2110.00000000000;2106.00000000000;2128.00000000000;2226.00000000000;2340.00000000000;2409.00000000000;2498.00000000000;2610.00000000000;2734.00000000000;2883.00000000000;2975.00000000000;2991.00000000000;3052.00000000000;3151.00000000000;3239.00000000000;3279.00000000000;3267.00000000000;3290.00000000000;3337.00000000000;3349.00000000000;3281.00000000000;3259.00000000000;3311.00000000000;3287.00000000000;3283.00000000000;3211.00000000000;3220.00000000000;3215.00000000000;3184.00000000000;3158.00000000000;3117.00000000000;3121.00000000000;3100.00000000000;3133.00000000000;3106.00000000000;3078.00000000000;3097.00000000000;3101.00000000000;3120.00000000000;3129.00000000000;3161.00000000000;3146.00000000000;3199.00000000000;3211.00000000000;3242.00000000000;3255.00000000000;3247.00000000000;3284.00000000000;3289.00000000000;3273.00000000000;3287.00000000000;3274.00000000000;3282.00000000000;3309.00000000000;3286.00000000000;3241.00000000000;3264.00000000000;3223.00000000000;3176.00000000000;3147.00000000000;3112.00000000000;3025.00000000000;2954.00000000000;2938.00000000000;2881.00000000000;2717.00000000000;2633.00000000000;2595.00000000000;2520.00000000000;2425.00000000000;2343.00000000000;2272.00000000000;2207.00000000000;2135.00000000000;2121.00000000000;2100.00000000000;2015.00000000000;1929.00000000000;1954.00000000000;1950.00000000000;1885.00000000000;1919.00000000000;1935.00000000000;1901.00000000000;1897.00000000000;1920.00000000000;1935.00000000000;1879.00000000000;1891.00000000000;1931.00000000000;1945.00000000000;1919.00000000000;1938.00000000000;1955.00000000000;1976.00000000000;1943.00000000000;1951.00000000000;1946.00000000000;1989.00000000000;1974.00000000000;1999.00000000000;1960.00000000000;1996.00000000000;1975.00000000000;1994.00000000000;1958.00000000000;1997.00000000000;1981.00000000000;1954.00000000000;1963.00000000000;1969.00000000000;1973.00000000000;1966.00000000000;1949.00000000000;1966.00000000000
Gyro Z : 2669.00000000000;2671.00000000000;2691.00000000000;2683.00000000000;2676.00000000000;2669.00000000000;2692.00000000000;2690.00000000000;2688.00000000000;2657.00000000000;2672.00000000000;2653.00000000000;2671.00000000000;2615.00000000000;2659.00000000000;2623.00000000000;2644.00000000000;2659.00000000000;2643.00000000000;2639.00000000000;2660.00000000000;2643.00000000000;2625.00000000000;2624.00000000000;2629.00000000000;2606.00000000000;2583.00000000000;2545.00000000000;2491.00000000000;2430.00000000000;2309.00000000000;2168.00000000000;1967.00000000000;1853.00000000000;1859.00000000000;1878.00000000000;1861.00000000000;1912.00000000000;1982.00000000000;2051.00000000000;2089.00000000000;2167.00000000000;2212.00000000000;2247.00000000000;2302.00000000000;2361.00000000000;2447.00000000000;2449.00000000000;2472.00000000000;2512.00000000000;2574.00000000000;2583.00000000000;2527.00000000000;2476.00000000000;2467.00000000000;2454.00000000000;2432.00000000000;2407.00000000000;2366.00000000000;2340.00000000000;2343.00000000000;2293.00000000000;2258.00000000000;2231.00000000000;2193.00000000000;2129.00000000000;2137.00000000000;2096.00000000000;2069.00000000000;2014.00000000000;1992.00000000000;2011.00000000000;2014.00000000000;2042.00000000000;2115.00000000000;2134.00000000000;2144.00000000000;2217.00000000000;2264.00000000000;2271.00000000000;2291.00000000000;2335.00000000000;2345.00000000000;2347.00000000000;2346.00000000000;2347.00000000000;2329.00000000000;2365.00000000000;2359.00000000000;2324.00000000000;2391.00000000000;2449.00000000000;2385.00000000000;2346.00000000000;2404.00000000000;2386.00000000000;2384.00000000000;2417.00000000000;2339.00000000000;2319.00000000000;2267.00000000000;2291.00000000000;2267.00000000000;2213.00000000000;2192.00000000000;2176.00000000000;2128.00000000000;2101.00000000000;2141.00000000000;2163.00000000000;2145.00000000000;2126.00000000000;2133.00000000000;2208.00000000000;2250.00000000000;2281.00000000000;2325.00000000000;2363.00000000000;2375.00000000000;2416.00000000000;2468.00000000000;2460.00000000000;2513.00000000000;2564.00000000000;2587.00000000000;2539.00000000000;2586.00000000000;2650.00000000000;2643.00000000000;2624.00000000000;2641.00000000000;2663.00000000000;2675.00000000000;2692.00000000000;2699.00000000000;2700.00000000000;2710.00000000000;2731.00000000000;2713.00000000000;2727.00000000000;2719.00000000000;2737.00000000000;2712.00000000000;2695.00000000000;2689.00000000000;2707.00000000000;2689.00000000000;2679.00000000000;2653.00000000000;2643.00000000000
