COMMAND 1 SAMPLE 1
Accel X : -1.9878936687450113;-1.6442782648476684;-1.5937465878039416;-2.0283190103799926;-1.7554479543438677;-1.8160859667963398;-1.6341719294389232;-1.9474683271100297;-1.9878936687450113;-1.8767239792488122;-1.6543846002564138;-1.8059796313875947;-1.8059796313875947;-1.9272556562925391;-1.8666176438400668;-1.9878936687450113;-1.9980000041537569;-1.7756606251613583;-1.8868303146575576;-2.0182126749712475;-1.846404973022576;-1.9575746625187753;-1.8565113084313214;-1.7958732959788493;-2.1091696936499558;-2.058638016606229;-1.8666176438400668;-1.846404973022576;-2.4224660913210623;-1.8666176438400668;-1.2602375193153441;-2.0687443520149742;-2.4022534205035719;-2.2304457185549005;-2.7458688244009144;-3.1299095699332393;-2.0081063395625023;-0.24960397844080637;1.5897490659508524;2.8631473274527699;2.8227219858177883;2.0546404947531398;2.8631473274527699;4.6721813656181927;4.4599483220345402;4.722713042661919;7.0471701866733563;7.1482335407608106;7.3301475781182273;8.1891860878615841;8.3306747835840191;8.5125888209414367;7.4312109322056807;7.0269575158558659;6.0163239749813284;5.147179129829226;3.9950568932322525;2.3275115507892652;1.7312377616732877;1.0743259601048381;0.134436767091518;-1.1187488235929091;-1.9272556562925391;-2.2102330477374097;-2.2607647247811364;-3.6352263403705081;-4.6761788874712815;-5.2623463411785139;-5.7878757824332734;-6.0607468384693988;-6.4650002548192136;-7.0511677085264459;-8.445841994933307;-10.052749324923823;-11.255403238564522;-11.669762990323084;-10.952213176302163;-10.881468828440944;-11.235190567747031;-11.326147586425741;-10.750086468127254;-9.6586022439827541;-7.5766971497812055;-6.6772332984028662;-5.4139413723096945;-4.9389436080986622;-4.0394797567203229;-2.9176765263495859;-0.239497643032061;0.51847751262384234;-0.34056099711951476;0.40730782312764319;1.7413440970820331;3.045061364810187;4.5407990053045024;5.2583488193254251;6.6227040995060502;7.4716362738406623;6.3599393788786704;4.5003736636695217;3.8434618621010719;6.2184506831562354;7.7445073298767877;7.2796159010745001;5.7636655897626934;5.2684551547341698;4.3993103095820674;2.9136790044964971;0.16475577331775415;-1.1995995068628718;-0.5831130469294038;1.3471970161409634;0.4477331647626247;-0.65385739479062155;-0.76502708428682065;-0.0070519286309172913;-0.1788596305795887;0.043479748412809598;0.18496844413524491;-0.50226236365944077;-0.98736646327921895;-1.4219388858552702;-0.35066733252826016;0.17486210872649952;-0.25971031384955173;-0.39109267416324162;-0.30013565548453325;-0.32034832630202403;-0.14854062435335258;-0.12832795353586182;-0.11822161812711644;-0.10811528271837106;-0.49215602825069543;-0.22939130762331561;0.043479748412809598;-0.27992298466704252;-0.21928497221457022;-0.25971031384955173;-0.33045466171076943;-0.56290037611191301;-0.82566509673929289;-0.73470807806058458;-0.54268770529442223;-0.37088000334575089;-0.43151801579822313;-0.54268770529442223;-0.73470807806058458;-0.69428273642560301;-0.72460174265183908;-0.31024199089327864
Accel Y : 0.8353277427182495;0.92714611750734621;0.48845832684832829;0.98835836736674409;0.64148895149682295;0.70270120135622072;0.70270120135622072;0.82512570107501648;0.74350936792915268;0.87613590929118146;0.89653999257764738;0.610882826567124;0.85573182600471542;0.92714611750734621;0.74350936792915268;0.69249915971298781;0.75371140957238569;0.8353277427182495;0.98835836736674409;0.98835836736674409;0.89653999257764738;0.91694407586411331;0.90674203422088029;0.68229711806975479;0.66189303478328898;0.89653999257764738;0.74350936792915268;0.87613590929118146;0.93734815915057923;0.92714611750734621;0.72310528464268664;0.88633795093441436;1.1413889920152389;1.0291665339396761;1.2434094084475684;1.5494706577445576;1.2332073668043355;0.63128690985358993;0.58027670163742517;1.0189644922964429;1.5188645328148589;1.3556318665231313;0.84552978436148241;1.0903787837990737;1.1923992002314037;-0.11346213010241728;-0.53174583747496929;0.13138686933517416;-0.52154379583173627;-1.6335663349441307;-2.4701337496892348;-2.5517500828350985;-3.8066012049527544;-4.4391277868331986;-5.6327666590914571;-6.1632728245395718;-6.683576948344454;-7.2650933220087328;-7.7445892792406834;-6.9080218644955798;-6.989638197641443;-7.581356612948956;-7.5201443630895577;-7.2650933220087328;-7.4079219050139944;-7.6221647795218876;-7.1936790305061029;-7.091658614073773;-6.9488300310685114;-6.9692341143549772;-6.4489299905500959;-5.9592319916749128;-5.887817700172282;-5.9286258667452136;-6.3163034491880667;-6.7039810316309199;-6.6325667401282891;-6.1122626163234068;-6.7039810316309199;-6.6529708234147549;-6.9284259477820456;-7.0508504475008413;-6.5407483653391925;-6.5509504069824249;-6.4183238656203967;-6.989638197641443;-5.9082217834587478;-5.4491299095132639;-5.296099284864769;-5.2552911182918374;-4.347309412044102;-2.6843766241971272;-1.3173030440039084;0.79451957614531754;1.8759359903280131;2.9369483212242424;2.2636135727708662;2.9063421962945437;3.0083626127268732;1.8147237404686152;1.8555319070415472;1.3250257415934323;0.81492365943178358;0.67209507642652189;0.43744811863216343;0.91694407586411331;0.93734815915057923;0.93734815915057923;1.3250257415934323;1.1923992002314037;1.1617930753017047;1.2944196166637334;1.1923992002314037;1.00876245065321;1.0903787837990737;1.1923992002314037;1.1719951169449376;1.3046216583069665;1.3964400330960631;1.0903787837990737;0.89653999257764738;0.7639134512156186;0.78431753450208452;0.80472161778855056;0.97815632572351119;0.90674203422088029;0.94755020079381225;0.99856040900997711;0.79451957614531754;0.81492365943178358;0.89653999257764738;0.86593386764794833;0.77411549285885162;0.8353277427182495;0.7639134512156186;0.80472161778855056;1.0495706172261421;0.93734815915057923;0.72310528464268664;0.89653999257764738;0.86593386764794833;0.77411549285885162;0.91694407586411331;0.89653999257764738;0.97815632572351119;0.93734815915057923;0.95775224243704526;0.98835836736674409;0.91694407586411331;0.87613590929118146
Accel Z : 9.2980628602707451;9.3783123675254245;9.428468309559598;9.2880316718639087;9.3381876138980839;9.4585618747801021;9.3281564254912492;9.2479069182365699;9.3281564254912492;9.1275326573545517;9.2479069182365699;9.2980628602707451;9.3281564254912492;9.3281564254912492;9.2980628602707451;9.428468309559598;9.3381876138980839;9.3582499907117533;9.4485306863732674;9.2479069182365699;9.4184371211527633;9.4485306863732674;9.4084059327459286;9.3582499907117533;9.3080940486775798;9.1375638457613864;9.278000483457074;9.1977509762023963;9.207782164609231;9.2278445414229004;9.3482188023049186;9.1475950341682211;8.9870960196588641;9.1074702805408805;9.2378757298297351;8.8767529471836806;8.4353806572829431;8.4755054109102854;8.5858484833854689;10.240994570513223;9.9601212951218461;9.7594975269851485;9.7193727733578097;10.511836657497765;10.692398048820792;9.930027729901342;10.371400019802078;10.792709932889142;9.7895910922056526;9.2378757298297351;9.0372519616930376;9.1977509762023963;8.3651623384351002;7.5225425122609701;6.7501410049346839;6.4090805991022979;6.0178642512357374;5.3858993816051397;4.5432795554310088;3.7909404249183933;2.9784141639647679;2.3564804827410049;1.9351705696539396;1.8549210623992607;1.744577989924077;1.1226443087003142;0.68127201879957933;0.48064825066288164;-0.040973546492532313;-0.12122305374721139;0.26999329411934908;0.47061706225604677;-0.16134780737455093;-1.3951839814152416;-2.1475231119278577;-2.2077102423688673;-2.0070864742321697;-1.6259013147724439;-2.3381156916577206;-2.0973671698936833;-2.0672736046731788;-1.96696172060483;-1.3550592277879021;-1.445339923449416;-1.5657141843314346;-0.66290722771629518;-0.18141018418822069;-0.75318792337780904;0.99223885941146073;0.93205172897045141;1.1627690623276539;1.7746715551445817;3.1589755552877956;5.7369909758443605;7.3219187441242726;7.3620434977516123;7.3620434977516123;10.311212889361068;11.203988657569372;9.7996222806124891;10.07046436759703;10.551961411125106;11.835953527199969;11.886109469234144;12.096764425777678;11.3845500488924;11.163863903942033;11.494893121367584;11.605236193842767;11.153832715535197;10.943177758991665;11.173895092348868;10.682366860413959;10.020308425562856;10.200869816885884;10.46168071546359;10.13065149803804;10.190838628479048;10.020308425562856;9.8598094110534973;9.8196846574261585;9.5689049472552856;9.6792480197304691;9.869840599460332;9.6993103965441403;9.4184371211527633;9.4585618747801021;9.207782164609231;9.7294039617646444;9.6591856429168015;9.5588737588484509;9.3281564254912492;9.1776885993887252;9.2880316718639087;9.3582499907117533;9.3482188023049186;9.2479069182365699;9.4384994979664327;9.4986866284074427;9.6591856429168015;9.488655440000608;9.5388113820347815;9.7795599037988197;9.7594975269851485;9.4986866284074427;9.7795599037988197;9.5689049472552856;9.6190608892894591;9.6290920776962956;9.3582499907117533
Gyro X : -0.74160510341150998;-0.52423809034261915;-0.49227235312660578;-0.76717769318432072;-0.59456271221784851;-0.63292159687706462;-0.51784494289941652;-0.71603251363869935;-0.74160510341150998;-0.67128048153628062;-0.53063123778582177;-0.62652844943386188;-0.62652844943386188;-0.70324621875229398;-0.66488733409307799;-0.74160510341150998;-0.74799825085471272;-0.60734900710425388;-0.67767362897948324;-0.76078454574111798;-0.65210103920667262;-0.72242566108190198;-0.65849418664987525;-0.62013530199065925;-0.81832287272994209;-0.78635713551392872;-0.66488733409307799;-0.65210103920667262;-1.0165104434692249;-0.66488733409307799;-0.28129848750091757;-0.79275028295713135;-1.0037241485828197;-0.89504064204837419;-1.2210911616517104;-1.4640307644934121;-0.75439139829791535;0.35801625681934968;1.521569091482236;2.3271056693257726;2.301533079552962;1.8156538738695589;2.3271056693257726;3.4714790616590512;3.3372229653517951;3.5034447988750643;4.9738687108116793;5.0378001852437055;5.1528768392213538;5.6962943718935808;5.7857984360984185;5.9008750900760667;5.2168083136533809;4.961082415925274;4.3217676716050066;3.7719569914895765;3.0431381829644719;1.9882688548360312;1.6110731556870734;1.1955185718788996;0.60095585966105125;-0.19179442329608018;-0.70324621875229398;-0.88225434716196882;-0.91422008437798219;-1.7836881366535455;-2.4421823233034208;-2.8129848750091759;-3.1454285420557149;-3.3180435230221872;-3.5737694207502937;-3.9445719724560488;-4.8268263196180179;-5.843336763087243;-6.6041213088283603;-6.8662403539996699;-6.4123268855322806;-6.3675748534298622;-6.5913350139419551;-6.6488733409307796;-6.2844639366682271;-5.5940040128023387;-4.2770156395025882;-3.7080255170575498;-2.9088820866572158;-2.6084041568266905;-2.0394140343816525;-1.329774668186156;0.36440940426255231;0.84389546250275271;0.30047792983052563;0.77357084062752335;1.6174663031302761;2.4421823233034208;3.3883681448974166;3.8422816133648063;4.705356518197167;5.2423809034261915;4.5391346846738978;3.3627955551246056;2.947240971316432;4.4496306204690601;5.4149958843926633;5.1209111020053406;4.16193898552494;3.848674760808009;3.2988640806925789;2.3590714065417862;0.62013530199065925;-0.24293960284170155;0.14704239119366147;1.368133552845372;0.79914343040033409;0.10229035909124276;0.031965737216013361;0.51145179545621378;0.40276828892176836;0.54341753267222714;0.63292159687706462;0.19818757073928284;-0.10868350653444543;-0.38358884659216036;0.29408478238732294;0.62652844943386188;0.35162310937614699;0.26851219261451226;0.32605051960333631;0.31326422471693094;0.42194773125137636;0.43473402613778173;0.44112717358098441;0.4475203210241871;0.20458071818248552;0.37080255170575499;0.54341753267222714;0.33883681448974162;0.37719569914895767;0.35162310937614699;0.30687107727372825;0.15982868608006681;-0.0063931474432026725;0.05114517954562138;0.17261498096647215;0.28129848750091757;0.24293960284170155;0.17261498096647215;0.05114517954562138;0.076717769318432064;0.057538326988824051;0.31965737216013362
Gyro Y : 1.7197566622215188;1.7772949892103429;1.5023896491526281;1.8156538738695589;1.5982868608006682;1.6366457454598842;1.6366457454598842;1.7133635147783162;1.6622183352326949;1.7453292519943295;1.758115546880735;1.5791074184710601;1.7325429571079243;1.7772949892103429;1.6622183352326949;1.6302525980166815;1.6686114826758975;1.7197566622215188;1.8156538738695589;1.8156538738695589;1.758115546880735;1.7709018417671403;1.7645086943239376;1.6238594505734787;1.6110731556870734;1.758115546880735;1.6622183352326949;1.7453292519943295;1.7836881366535455;1.7772949892103429;1.6494320403462894;1.7517223994375322;1.911551085517599;1.8412264636423696;1.9754825599496257;2.1672769832457059;1.9690894125064231;1.5918937133574655;1.5599279761414522;1.834833316199167;2.1480975409160981;2.0458071818248551;1.7261498096647216;1.8795853483015856;1.9435168227336124;1.1251939500036703;0.86307490483236082;1.2786294886405345;0.86946805227556345;0.17261498096647215;-0.35162310937614699;-0.40276828892176836;-1.189125424435697;-1.5855005659142627;-2.3334988167689756;-2.6659424838155146;-2.9919930034188509;-3.356402407681403;-3.6568803375119288;-3.1326422471693096;-3.1837874267149311;-3.5545899784206858;-3.51623109376147;-3.356402407681403;-3.4459064718862402;-3.5801625681934968;-3.3116503755789841;-3.2477189011469574;-3.1582148369421201;-3.1710011318285254;-2.8449506122251891;-2.5380795349514611;-2.4933275028490423;-2.5189000926218528;-2.7618396954635545;-3.0047792983052561;-2.9600272662028373;-2.633976746599501;-3.0047792983052561;-2.9728135610892426;-3.1454285420557149;-3.2221463113741469;-2.9024889392140132;-2.9088820866572158;-2.8257711698955812;-3.1837874267149311;-2.5061137977354475;-2.2184221627913274;-2.1225249511432871;-2.0969523613704766;-1.5279622389254388;-0.48587920568340309;0.37080255170575499;1.6941840724487083;2.3718577014281914;3.0367450355212693;2.6147973042698931;3.0175655931916614;3.0814970676236881;2.3334988167689756;2.3590714065417862;2.0266277394952472;1.7069703673351135;1.6174663031302761;1.4704239119366147;1.7709018417671403;1.7836881366535455;1.7836881366535455;2.0266277394952472;1.9435168227336124;1.9243373804040045;2.0074482971656393;1.9435168227336124;1.8284401687559644;1.8795853483015856;1.9435168227336124;1.9307305278472071;2.013841444608842;2.0713797715976661;1.8795853483015856;1.758115546880735;1.6750046301191002;1.6877909250055054;1.7005772198919109;1.8092607264263563;1.7645086943239376;1.7900812840967484;1.8220470213127617;1.6941840724487083;1.7069703673351135;1.758115546880735;1.7389361045511269;1.6813977775623028;1.7197566622215188;1.6750046301191002;1.7005772198919109;1.8540127585287749;1.7836881366535455;1.6494320403462894;1.758115546880735;1.7389361045511269;1.6813977775623028;1.7709018417671403;1.758115546880735;1.8092607264263563;1.7836881366535455;1.796474431539951;1.8156538738695589;1.7709018417671403;1.7453292519943295
Gyro Z : 5.1400905443349485;5.1912357238805704;5.2232014610965836;5.1336973968917459;5.165663134107759;5.2423809034261915;5.1592699866645564;5.1081248071189354;5.1592699866645564;5.0314070378005029;5.1081248071189354;5.1400905443349485;5.1592699866645564;5.1592699866645564;5.1400905443349485;5.2232014610965836;5.165663134107759;5.1784494289941643;5.2359877559829888;5.1081248071189354;5.2168083136533809;5.2359877559829888;5.2104151662101783;5.1784494289941643;5.1464836917781511;5.0378001852437055;5.1273042494485432;5.0761590699029222;5.0825522173461248;5.0953385122325301;5.1720562815509616;5.0441933326869082;4.9419029735956661;5.0186207429140977;5.1017316596757327;4.8715783517204363;4.5902798642195188;4.6158524539923294;4.6861770758675592;5.7410464039960001;5.5620382755863247;5.4341753267222712;5.4086027369494607;5.913661384962472;6.0287380389401202;5.5428588332567168;5.8241573207576343;6.0926695133721465;5.45335476905188;5.1017316596757327;4.9738687108116793;5.0761590699029222;4.5455278321171004;4.008503446888076;3.51623109376147;3.2988640806925789;3.0495313304076745;2.6467630414859062;2.1097386562568818;1.6302525980166815;1.112407655117265;0.71603251363869935;0.4475203210241871;0.39637514147856567;0.32605051960333631;-0.070324621875229393;-0.35162310937614699;-0.47948605824020041;-0.81192972528673935;-0.86307490483236082;-0.61374215454745651;-0.48587920568340309;-0.88864749460517145;-1.6750046301191002;-2.1544906883593007;-2.1928495730185165;-2.064986624154463;-1.8220470213127617;-2.2759604897801515;-2.1225249511432871;-2.1033455088136792;-2.0394140343816525;-1.6494320403462894;-1.7069703673351135;-1.7836881366535455;-1.2083048667653051;-0.90143378949157682;-1.2658431937541292;-0.15343553863686413;-0.19179442329608018;-0.04475203210241871;0.34522996193294431;1.227484309094913;2.870523201998;3.8806404980240221;3.9062130877968331;3.9062130877968331;5.7857984360984185;6.354788558543456;5.4597479164950826;5.6323628974615545;5.9392339747352825;6.7575568474652243;6.7895225846812384;6.9237786809884945;6.4698652125211042;6.3292159687706455;6.5401898343963341;6.610514456271563;6.3228228213274429;6.1885667250201868;6.3356091162138481;6.0223448914969175;5.6003971602455414;5.7154738142231896;5.8816956477464588;5.6707217821207703;5.709080666779986;5.6003971602455414;5.4981068011542984;5.4725342113814879;5.3127055253014204;5.3830301471766502;5.504499948597501;5.3958164420630554;5.2168083136533809;5.2423809034261915;5.0825522173461248;5.4149958843926633;5.3702438522902449;5.3063123778582177;5.1592699866645564;5.0633727750165169;5.1336973968917459;5.1784494289941643;5.1720562815509616;5.1081248071189354;5.2295946085397862;5.267953493199002;5.3702438522902449;5.2615603457557993;5.2935260829718125;5.4469616216086765;5.4341753267222712;5.267953493199002;5.4469616216086765;5.3127055253014204;5.3446712625174344;5.351064409960637;5.1784494289941643
COMMAND 1 SAMPLE 2
Accel X : -0.77513341969556604;-0.66396373019936683;-0.89640944460051053;-0.50226236365944077;-0.78523975510431143;-0.5831130469294038;-0.67407006560811222;-0.62353838856438526;-0.45173068661571392;-0.71449540724309379;-0.70438907183434829;-0.60332571774689459;-0.66396373019936683;-0.87619677378301974;-0.45173068661571392;-0.74481441346932986;-0.75492074887807525;-0.61343205315563998;-0.69428273642560301;-0.83577143214803828;-0.63364472397313076;-0.39109267416324162;-0.96715379246172817;-0.71449540724309379;-0.96715379246172817;-0.76502708428682065;-0.9166221154180012;-0.75492074887807525;-1.0075791340967097;-1.1288551590016542;-0.89640944460051053;-0.84587776755678368;-0.62353838856438526;-0.40119900957198701;-0.46183702202445931;0.033373413004064219;0.52858384803258773;0.73071055620749537;1.0339006184698567;2.0950658363881214;2.4285749048767191;2.2567672029280477;3.3078260854375667;4.4599483220345402;4.8439890675668646;5.3088804963691523;6.5115344100098511;7.6838693174243149;8.4014191314452376;8.3205684481752744;8.0578037275478938;9.2503513057798497;9.7758807470346074;9.5232223618159733;9.6141793804946829;9.8567314303045706;8.9471612435174865;8.7551408707513261;9.3615209952760488;8.3609937898102551;7.340253913526972;7.3806792551619544;5.1269664590117348;3.2977197500288211;2.6205952776428809;2.4083622340592279;1.367409686958454;0.31635080444893476;-0.29002932007578791;-1.1894931714541264;-1.9474683271100297;-2.5942737932697337;-3.3522489489256375;-3.8171403777279247;-4.6660725520625368;-5.4139413723096945;-4.9894752851423894;-5.1814956579085507;-5.8990454719294725;-6.7176586400378477;-7.445314789467516;-8.1123329264447097;-8.8905207529181034;-9.1633918089542288;-9.7091339210264795;-10.153812679011278;-10.34583305177744;-11.295828580199505;-11.912315040132972;-10.598491436996074;-9.4969008774428261;-9.6687085793914989;-9.6181769023477717;-8.3649913116633456;-6.0203214968344172;-3.7868213715016887;-3.1198032345244937;-1.5027895691252333;0.17486210872649952;1.3168780099147273;2.489212917329191;4.9551587570630629;10.513643231873022;15.688086961150654;16.476381123032795;15.405109569705784;12.282251928403463;8.3508874544015104;8.2902494419490385;11.888104847462392;13.201928450599292;12.888632052928186;11.433319754068851;8.987586585152469;8.5833331688026533;8.1992924232703288;6.6328104349147958;5.00569043410679;4.4397356512170489;3.8636745329185627;1.7918757741257598;0.16475577331775415;0.31635080444893476;0.40730782312764319;0.14454310250026339;0.59932819589380537;0.2759254628139533;-0.017158264039662668;0.34666981067517094;-0.16875329517084334;-0.42141168038947774;-0.239497643032061;-0.027264599448408047;-0.239497643032061;0.033373413004064219;0.31635080444893476;0.49826484180635161;-0.077796276492134941;-0.14854062435335258;0.134436767091518;0.094011425456536485;-0.49215602825069543;-0.077796276492134941;-0.25971031384955173;-0.42141168038947774;-0.16875329517084334;0.134436767091518;-0.55279404070316773;-0.017158264039662668;0.023267077595318843
Accel Y : 1.3556318665231313;1.2944196166637334;0.93734815915057923;1.3352277832366652;1.2740155333772676;1.1923992002314037;1.3148236999501994;1.1005808254423068;1.2740155333772676;1.3250257415934323;1.0291665339396761;1.1923992002314037;1.1719951169449376;1.3760359498095971;1.3148236999501994;1.2842175750205005;1.2944196166637334;1.0903787837990737;1.2842175750205005;1.2332073668043355;1.3352277832366652;1.1515910336584718;1.2332073668043355;1.38623799145283;1.5392686161013247;1.3556318665231313;1.3148236999501994;1.406642074739296;1.3352277832366652;1.2434094084475684;1.3046216583069665;1.2332073668043355;1.2638134917340347;1.406642074739296;1.2740155333772676;1.1209849087287727;1.1413889920152389;1.0495706172261421;0.97815632572351119;0.7639134512156186;0.77411549285885162;0.90674203422088029;0.86593386764794833;0.75371140957238569;0.7639134512156186;0.66189303478328898;0.33542770219983364;0.39663995205923153;0.03956849454607736;-0.11346213010241728;-0.48073562925880436;-0.50113971254527034;-0.85821117005842462;-1.0010397530636861;-1.4703336686524029;-2.449729666402769;-2.5313459995486327;-3.2148827896452419;-3.7045807885204249;-4.4391277868331986;-5.0206441604974783;-5.3063013265080023;-5.6633727840211554;-6.7447891982038515;-7.0814565724305396;-6.3367075324745326;-7.0610524891440738;-7.581356612948956;-7.295699446938432;-7.040648405857608;-7.3161035302248978;-7.7445892792406834;-7.8568117373162458;-7.295699446938432;-7.581356612948956;-7.7751954041703826;-7.4895382381598594;-7.346709655154597;-6.8264055313497147;-6.9386279894252789;-6.6529708234147549;-6.7549912398470839;-6.5611524486256583;-6.4387279489068625;-6.2958993659016;-6.4081218239771633;-5.9898381166046111;-6.091858533036941;-6.2142830327557368;-5.6327666590914571;-5.2144829517189057;-5.9694340333181453;-6.4387279489068625;-5.9898381166046111;-6.0000401582478444;-5.7143829922373204;-5.9898381166046111;-5.5613523675888263;-5.0818564103568766;-3.6229644553745612;-1.3581112105768405;2.6716952385001851;6.7219057708636765;7.4666548108196835;3.6612932778937841;1.8657339486847802;1.5290665744580918;0.28441749398366878;0.35583178548629962;-0.072653963529485388;-0.64396829555053192;-0.43992746268587252;-0.5419478791182023;-0.22568458817798001;0.13138686933517416;0.19259911919457198;0.67209507642652189;0.37623586877276555;0.64148895149682295;0.98835836736674409;0.49866036849156131;0.73330732628591977;0.71290324299945373;1.0291665339396761;0.84552978436148241;0.93734815915057923;0.85573182600471542;0.68229711806975479;0.93734815915057923;1.0903787837990737;0.90674203422088029;0.70270120135622072;0.8353277427182495;0.94755020079381225;0.66189303478328898;1.0495706172261421;0.78431753450208452;0.99856040900997711;0.94755020079381225;1.039368575582909;1.059772658869375;1.039368575582909;1.1209849087287727;1.3148236999501994;1.0699747005126079;1.00876245065321;1.00876245065321;0.89653999257764738;1.00876245065321;0.79451957614531754
Accel Z : 9.6692168313236362;9.3482188023049186;9.3080940486775798;9.649154454509965;9.5187490052211121;9.5989985124757915;9.5388113820347815;9.4485306863732674;9.5588737588484509;9.6692168313236362;9.4485306863732674;9.4786242515937733;9.5689049472552856;9.649154454509965;9.3582499907117533;9.488655440000608;9.4585618747801021;9.5388113820347815;9.4685930631869368;9.5187490052211121;9.6190608892894591;9.6290920776962956;9.4485306863732674;9.1776885993887252;9.548842570441618;9.6591856429168015;9.6692168313236362;9.207782164609231;9.3482188023049186;9.4084059327459286;9.4084059327459286;9.217813353016064;9.5287801936279468;9.6290920776962956;9.057314338506707;8.9570024544383582;9.3281564254912492;9.2980628602707451;9.217813353016064;9.278000483457074;9.5689049472552856;9.0673455269135417;8.8466593819631747;9.0272207732862029;9.0673455269135417;9.0673455269135417;9.2579381066434046;9.1175014689477152;8.5758172949786324;8.4554430340966142;8.1645385702984026;8.1043514398573926;7.3219187441242726;7.2015444832422535;6.6498291208663352;6.3488934686612888;6.2285192077792706;5.6467102801828464;5.0548701641795883;4.7739968887882114;4.3326245988874774;3.6805973524432094;3.6204102220022003;3.1188508016604559;3.0085077291852724;3.3896928886449982;3.0386012944057774;2.4768547436230235;2.4166676131820144;2.1959814682316465;2.1157319609769676;2.4367299899956838;2.3966052363683445;2.4467611784025185;1.9050770044334353;1.8147963087719212;1.9552329464676095;1.9752953232812793;2.1357943377906374;1.9251393812471049;1.8549210623992607;1.5339230333805445;1.1326754971071491;0.96214529419095607;0.58096013473123043;0.24993091730567932;0.06936952598265142;0.0091823955416421108;-0.19144137259505556;0.36027398978086306;0.92202054056361649;-0.061035923306202076;-0.58265772046161601;-0.051004734899367188;-0.28172206825656948;0.16968141005100024;0.59099132313806535;0.24993091730567932;-0.40209632913858812;-0.68296960452996491;-1.2948720973468928;-0.4723146479864323;2.7577280190144;5.5865231497418382;4.5533107438378444;4.4630300481763303;4.8542463960428908;5.1150572946205974;6.6397979324594996;8.2347568891462473;8.2146945123325779;7.6328855847361536;7.8335093528728512;8.0842890630437232;8.495567787723953;9.0673455269135417;8.6961915558606524;8.8867841355905135;9.0874079037272129;8.7262851210811565;8.9870960196588641;8.9870960196588641;9.047283150099874;9.1275326573545517;9.4986866284074427;9.3582499907117533;9.368281179118588;9.5989985124757915;9.6892792081373038;9.5588737588484509;9.6090297008826262;9.8096534690193238;9.7394351501714791;9.649154454509965;9.8196846574261585;10.020308425562856;9.6993103965441403;9.5689049472552856;9.7394351501714791;9.7394351501714791;9.5689049472552856;9.649154454509965;9.7394351501714791;9.7795599037988197;9.4084059327459286;9.5989985124757915;9.5087178168142756;9.428468309559598;9.5588737588484509;9.548842570441618
Gyro X : 0.02557258977281069;0.09589721164804009;-0.05114517954562138;0.19818757073928284;0.019179442329608016;0.14704239119366147;0.089504064204837419;0.12146980142085077;0.2301533079552962;0.063931474432026722;0.070324621875229393;0.13425609630725613;0.09589721164804009;-0.038358884659216032;0.2301533079552962;0.04475203210241871;0.038358884659216032;0.12786294886405344;0.076717769318432064;-0.012786294886405345;0.1150766539776481;0.26851219261451226;-0.09589721164804009;0.063931474432026722;-0.09589721164804009;0.031965737216013361;-0.063931474432026722;0.038358884659216032;-0.12146980142085077;-0.19818757073928284;-0.05114517954562138;-0.019179442329608016;0.12146980142085077;0.26211904517130957;0.22376016051209355;0.53702438522902451;0.85028860994595545;0.97815155881000893;1.1699459821060891;1.8412264636423696;2.0522003292680577;1.9435168227336124;2.6084041568266905;3.3372229653517951;3.5801625681934968;3.8742473505808195;4.6350318963219372;5.3766369997334476;5.8305504682008369;5.7794052886552159;5.6131834551319466;6.3675748534298622;6.7000185204764007;6.5401898343963341;6.5977281613851577;6.7511637000220217;6.1757804301337815;6.0543106287129307;6.4378994753050911;5.8049778784280264;5.1592699866645564;5.1848425764373669;3.7591706966031713;2.6020110093834878;2.1736701306889086;2.0394140343816525;1.3809198477317772;0.71603251363869935;0.33244366704653899;-0.23654645539849889;-0.71603251363869935;-1.1251939500036703;-1.6046800082438708;-1.8987647906311937;-2.4357891758602181;-2.9088820866572158;-2.6403698940427036;-2.7618396954635545;-3.2157531639309442;-3.7335981068303608;-4.1939047227409532;-4.6158524539923294;-5.1081248071189354;-5.2807397880854072;-5.6259697500183519;-5.9072682375192693;-6.0287380389401202;-6.6296938986011718;-7.0196758926365339;-6.1885667250201868;-5.4917136537110958;-5.6003971602455414;-5.5684314230295273;-4.775681140072396;-3.2924709332493762;-1.8795853483015856;-1.4576376170502092;-0.43473402613778173;0.62652844943386188;1.3489541105157639;2.090559213927274;3.6504871900687261;7.1667182838301962;10.440009774749964;10.938675275319772;10.26100164634029;8.2855190863906643;5.7985847309848237;5.760225846325608;8.0361863361057591;8.8672955037221062;8.6691079329828238;7.748494701161639;6.201353019906592;5.9456271221784851;5.7026875193367834;4.7117496656403697;3.6824529272847393;3.3244366704653898;2.9600272662028373;1.6494320403462894;0.62013530199065925;0.71603251363869935;0.77357084062752335;0.60734900710425388;0.89504064204837419;0.69045992386588861;0.50505864801301115;0.73521195596830735;0.40916143636497104;0.24933275028490423;0.36440940426255231;0.49866550056980846;0.36440940426255231;0.53702438522902451;0.71603251363869935;0.83110916761634746;0.46669976335379509;0.42194773125137636;0.60095585966105125;0.57538326988824051;0.20458071818248552;0.46669976335379509;0.35162310937614699;0.24933275028490423;0.40916143636497104;0.60095585966105125;0.1662218335232695;0.50505864801301115;0.53063123778582177
Gyro Y : 2.0458071818248551;2.0074482971656393;1.7836881366535455;2.0330208869384498;1.9946620022792338;1.9435168227336124;2.0202345920520446;1.8859784957447883;1.9946620022792338;2.0266277394952472;1.8412264636423696;1.9435168227336124;1.9307305278472071;2.0585934767112604;2.0202345920520446;2.0010551497224363;2.0074482971656393;1.8795853483015856;2.0010551497224363;1.9690894125064231;2.0330208869384498;1.9179442329608016;1.9690894125064231;2.064986624154463;2.1608838358025033;2.0458071818248551;2.0202345920520446;2.0777729190408687;2.0330208869384498;1.9754825599496257;2.013841444608842;1.9690894125064231;1.9882688548360312;2.0777729190408687;1.9946620022792338;1.8987647906311937;1.911551085517599;1.8540127585287749;1.8092607264263563;1.6750046301191002;1.6813977775623028;1.7645086943239376;1.7389361045511269;1.6686114826758975;1.6750046301191002;1.6110731556870734;1.406492437504588;1.444851322163804;1.2210911616517104;1.1251939500036703;0.89504064204837419;0.88225434716196882;0.65849418664987525;0.56899012244503788;0.27490534005771494;-0.33883681448974162;-0.38998199403536304;-0.81832287272994209;-1.1251939500036703;-1.5855005659142627;-1.949909970176815;-2.1289180985864897;-2.3526782590985835;-3.0303518880780667;-3.2413257537037548;-2.7746259903499597;-3.2285394588173495;-3.5545899784206858;-3.3755818500110109;-3.2157531639309442;-3.3883681448974166;-3.6568803375119288;-3.7272049593871581;-3.3755818500110109;-3.5545899784206858;-3.6760597798415366;-3.4970516514318617;-3.4075475872270244;-3.0814970676236881;-3.1518216894989175;-2.9728135610892426;-3.0367450355212693;-2.9152752341004184;-2.8385574647819865;-2.7490534005771492;-2.8193780224523786;-2.557258977281069;-2.6211904517130957;-2.6979082210315277;-2.3334988167689756;-2.0713797715976661;-2.5444726823946637;-2.8385574647819865;-2.557258977281069;-2.5636521247242716;-2.3846439963145967;-2.557258977281069;-2.2887467846665568;-1.9882688548360312;-1.074048770458049;0.34522996193294431;2.870523201998;5.4086027369494607;5.8753025003032562;3.4906585039886591;2.3654645539849888;2.1544906883593007;1.3745267002885746;1.4192787323909932;1.150766539776481;0.79275028295713135;0.92061323182118482;0.85668175738915808;1.0548693281284409;1.2786294886405345;1.3169883732997505;1.6174663031302761;1.4320650272773987;1.5982868608006682;1.8156538738695589;1.5087827965958307;1.6558251877894921;1.6430388929030868;1.8412264636423696;1.7261498096647216;1.7836881366535455;1.7325429571079243;1.6238594505734787;1.7836881366535455;1.8795853483015856;1.7645086943239376;1.6366457454598842;1.7197566622215188;1.7900812840967484;1.6110731556870734;1.8540127585287749;1.6877909250055054;1.8220470213127617;1.7900812840967484;1.8476196110855723;1.8604059059719777;1.8476196110855723;1.8987647906311937;2.0202345920520446;1.8667990534151804;1.8284401687559644;1.8284401687559644;1.758115546880735;1.8284401687559644;1.6941840724487083
Gyro Z : 5.3766369997334476;5.1720562815509616;5.1464836917781511;5.3638507048470423;5.2807397880854072;5.3318849676310291;5.2935260829718125;5.2359877559829888;5.3063123778582177;5.3766369997334476;5.2359877559829888;5.2551671983125967;5.3127055253014204;5.3638507048470423;5.1784494289941643;5.2615603457557993;5.2423809034261915;5.2935260829718125;5.2487740508693941;5.2807397880854072;5.3446712625174344;5.351064409960637;5.2359877559829888;5.0633727750165169;5.2999192304150151;5.3702438522902449;5.3766369997334476;5.0825522173461248;5.1720562815509616;5.2104151662101783;5.2104151662101783;5.0889453647893275;5.2871329355286099;5.351064409960637;4.9866550056980845;4.9227235312660573;5.1592699866645564;5.1400905443349485;5.0889453647893275;5.1273042494485432;5.3127055253014204;4.9930481531412871;4.8523989093908284;4.9674755633684766;4.9930481531412871;4.9930481531412871;5.114517954562138;5.0250138903573003;4.6797839284243565;4.6030661591059241;4.417664883253047;4.3793059985938303;3.8806404980240221;3.8039227287055901;3.4522996193294433;3.2605051960333631;3.1837874267149311;2.8129848750091759;2.4357891758602181;2.2567810474505432;1.9754825599496257;1.5599279761414522;1.521569091482236;1.2019117193221025;1.1315870974468729;1.3745267002885746;1.150766539776481;0.79275028295713135;0.75439139829791535;0.61374215454745651;0.56259697500183514;0.76717769318432072;0.74160510341150998;0.77357084062752335;0.42834087869457904;0.37080255170575499;0.46030661591059241;0.47309291079699778;0.57538326988824051;0.44112717358098441;0.39637514147856567;0.19179442329608018;-0.063931474432026722;-0.17261498096647215;-0.41555458380817373;-0.62652844943386188;-0.74160510341150998;-0.77996398807072609;-0.90782693693477945;-0.55620382755863251;-0.19818757073928284;-0.82471602017314471;-1.1571596872196837;-0.81832287272994209;-0.96536526392360356;-0.67767362897948324;-0.40916143636497104;-0.62652844943386188;-1.0420830332420357;-1.2210911616517104;-1.6110731556870734;-1.0868350653444543;0.97175841136680619;2.7746259903499597;2.1161318037000845;2.0585934767112604;2.3079262269961647;2.4741480605194344;3.4459064718862402;4.4624169153554654;4.4496306204690601;4.0788280687633049;4.2066910176273584;4.366519703707425;4.6286387488787346;4.9930481531412871;4.7565016977427881;4.8779714991636389;5.0058344480276924;4.775681140072396;4.9419029735956661;4.9419029735956661;4.9802618582548819;5.0314070378005029;5.267953493199002;5.1784494289941643;5.1848425764373669;5.3318849676310291;5.3894232946198528;5.3063123778582177;5.3382781150742318;5.4661410639382852;5.421389031835866;5.3638507048470423;5.4725342113814879;5.6003971602455414;5.3958164420630554;5.3127055253014204;5.421389031835866;5.421389031835866;5.3127055253014204;5.3638507048470423;5.421389031835866;5.4469616216086765;5.2104151662101783;5.3318849676310291;5.2743466406422046;5.2232014610965836;5.3063123778582177;5.2999192304150151
COMMAND 1 SAMPLE 3
Accel X : -1.5230022399427239;-1.5027895691252333;-1.5432149107602149;-1.3410882025853073;-1.442151556672761;-1.2703438547240895;-1.4926832337164879;-1.3815135442202888;-1.3511945379940524;-1.4623642274902517;-1.2703438547240895;-1.4017262150377794;-1.5027895691252333;-1.4522578920815064;-1.442151556672761;-1.4320452212640156;-1.442151556672761;-1.4724705628989971;-1.4017262150377794;-1.2602375193153441;-1.3815135442202888;-1.6240655940301778;-1.2501311839065989;-1.3815135442202888;-1.3410882025853073;-1.442151556672761;-1.3714072088115434;-2.6650181411309517;-2.9378891971670771;-1.4320452212640156;-0.86609043837427446;-0.53258136988567695;0.23550012117897176;1.6807060846295609;3.4189957749337658;4.7934573905231375;5.6120705586315127;6.4508963975573792;7.3806792551619544;7.9769530442779315;8.9168422372912506;10.260984846654388;10.655131927595457;10.442898884011804;10.432792548603057;11.120023356397743;11.584914785200031;11.312043729163907;10.826939629544126;10.200346834201914;9.4423716785460119;8.8865232310650164;8.7551408707513261;8.1487607462266034;6.8753624847246853;5.9354732917113644;4.7934573905231375;3.6110161476999281;3.045061364810187;2.0445341593443942;0.6801788791637684;-0.1788596305795887;-0.18896596598833409;-1.0075791340967097;-1.7150226127088861;-2.301190066416118;-3.5745883279180357;-4.5852218687925737;-5.3634096952659673;-6.141597521739361;-6.3639369007317601;-6.5559572734979215;-6.8894663419865196;-7.9708442307222755;-8.7086067155606877;-9.2240298214067025;-9.3453058463116463;-9.3048805046766656;-10.598491436996074;-10.68944845567478;-10.820830815988472;-11.406998269695704;-11.578805971644375;-10.578278766178583;-9.8809416229751523;-8.9915841070055578;-7.930418889087294;-6.6267016213591399;-4.7974549123762262;-3.4937376446480726;-2.1192760290587014;-0.73470807806058458;0.51847751262384234;1.1551766433748012;1.8221947803519962;3.7727175142398539;7.0370638512646106;7.936527702642949;7.9466340380516955;8.7652472061600708;10.766301617091656;12.160975903498517;11.342362735390143;10.058858138479479;11.948742859914864;11.95884919532361;12.555122984439587;14.576390066188662;13.262566463051764;11.01896000231029;11.332256399981397;11.433319754068851;9.7758807470346074;7.6535503111980798;6.0264303103900732;4.3993103095820674;3.6009098122911829;2.3982558986504823;1.2663463328710005;1.2865590036884911;1.2360273266447641;0.99347527683487513;0.72060422079874986;0.60943453130255076;0.76102956243373143;-0.18896596598833409;-0.51236869906818616;0.15464943790900876;0.033373413004064219;-0.18896596598833409;-0.067689941083389563;-0.38098633875449622;-0.50226236365944077;-0.49215602825069543;-0.52247503447693155;-0.56290037611191301;-0.25971031384955173;-0.4113053449807324;-0.077796276492134941;-0.36077366793700555;-0.36077366793700555;0.15464943790900876;-0.46183702202445931;0.24560645658771715;0.51847751262384234;-0.26981664925829713;-0.16875329517084334;0.0030544067778280866;-0.38098633875449622;0.043479748412809598
Accel Y : 1.559672699387791;1.4678543245986939;1.6208849492471886;1.2944196166637334;1.559672699387791;1.7943196571821491;1.457652282955461;1.4474502413122281;1.406642074739296;1.7127033240362854;1.6106829076039557;1.4984604495283929;1.6412890325336547;1.5494706577445576;1.559672699387791;1.6820971991065863;1.5188645328148589;1.6616931158201205;1.3556318665231313;1.6718951574633534;1.5698747410310239;1.6514910741768876;1.3556318665231313;1.6004808659607228;1.8249257821118481;1.5494706577445576;1.4984604495283929;1.5800767826742568;1.5086624911716258;1.7739155738956833;1.7637135322524502;1.6922992407498194;1.8147237404686152;1.7637135322524502;1.1821971585881708;1.2944196166637334;1.1719951169449376;1.3454298248798982;1.2332073668043355;0.73330732628591977;0.610882826567124;0.66189303478328898;0.13138686933517416;0.12118482769194117;-0.32770500461030977;-0.66437237883699796;-1.4193234604362381;-2.1130622921760804;-3.3475093310072705;-3.296499122791106;-4.0412481627471131;-5.0818564103568766;-5.8266054503128837;-6.683576948344454;-6.7957994064200165;-6.9488300310685114;-6.9182239061388122;-7.3875178217275286;-7.4283259883004602;-7.2242851554358012;-7.8058015291000808;-7.295699446938432;-7.6425688628083535;-7.9996403203215074;-7.346709655154597;-6.8774157395658797;-7.0202443225711422;-6.6121626568418232;-6.4693340738365617;-6.3265054908313001;-6.1632728245395718;-6.1224646579666402;-5.8266054503128837;-5.836807491956117;-5.5205442010158947;-5.6429687007346896;-5.2654931599350707;-5.4695339927997297;-5.5307462426591272;-5.7041809505940879;-5.9286258667452136;-5.8572115752425828;-6.2958993659016;-6.683576948344454;-6.3571116157609993;-6.4081218239771633;-6.2346871160422026;-6.2448891576854351;-6.2754952826151342;-6.1326666996098727;-5.8470095335993504;-5.7347870755237862;-4.9492298689948475;-4.3779155369738012;-3.5617522055151634;-2.6435684576241951;-1.5213438768685681;-1.4703336686524029;-0.62356421226406611;1.2026012418746366;1.2638134917340347;2.0493706982629734;1.0903787837990737;-0.0012396720268545484;0.36603382712953259;-0.60316012897760019;-1.0418479196366182;-0.95002954484752133;-0.6949785037666969;-0.15427029667534919;0.16199299426487307;-0.15427029667534919;0.23340728576750391;0.27421545234043576;0.69249915971298781;1.00876245065321;0.8353277427182495;0.90674203422088029;0.8353277427182495;0.90674203422088029;1.0189644922964429;1.1515910336584718;0.77411549285885162;1.059772658869375;1.1515910336584718;0.95775224243704526;0.99856040900997711;1.0291665339396761;0.96795428408027817;0.68229711806975479;0.94755020079381225;0.82512570107501648;0.70270120135622072;0.67209507642652189;0.85573182600471542;0.78431753450208452;0.51906445177802718;0.610882826567124;0.79451957614531754;0.91694407586411331;0.69249915971298781;0.96795428408027817;0.73330732628591977;0.45785220191862941;1.0291665339396761;0.68229711806975479;0.90674203422088029;1.00876245065321;1.059772658869375;0.86593386764794833
Accel Z : 9.5187490052211121;9.4184371211527633;9.2579381066434046;9.3482188023049186;9.2980628602707451;9.4685930631869368;9.267969295050241;9.217813353016064;9.267969295050241;9.0974390921340476;9.428468309559598;9.3482188023049186;9.4084059327459286;9.2278445414229004;9.3181252370844145;9.2479069182365699;9.5287801936279468;9.4184371211527633;9.428468309559598;9.5588737588484509;9.3281564254912492;9.368281179118588;9.2980628602707451;9.1877197877955599;9.2479069182365699;9.1275326573545517;9.0372519616930376;8.8566905703700094;8.7262851210811565;8.9770648312520294;9.2278445414229004;9.1074702805408805;8.9670336428451929;8.7463474978948259;8.2748816427735861;8.4353806572829431;8.6159420486059712;8.0642266862300538;7.7933845992455115;7.3520123093447767;7.2316380484627585;7.1714509180217485;6.218488019372435;5.40596175841881;5.626647903369177;5.3658370047914694;4.9846518453317445;4.4630300481763303;4.0116265698687608;3.7307532944773838;3.7708780481047235;3.1088196132536212;2.958351787151098;3.1389131784741258;3.1489443668809609;2.0756072073496283;2.8680710914895839;2.6975408885733909;2.1959814682316465;2.4066364247751793;2.336418105927335;2.7376656422007306;2.1057007725701329;2.1959814682316465;2.3163557291136656;2.1959814682316465;1.7746715551445817;1.7847027435514167;2.2762309754863255;1.9552329464676095;1.7546091783309119;1.9853265116881142;2.0655760189427932;2.0154200769086188;1.8950458160266002;1.7345468015172423;2.1759190914179771;2.0555448305359585;1.6843908594830677;1.5941101638215538;1.6542972942625631;1.5339230333805445;1.393486395684856;1.323268076837012;1.2028938159549933;1.3032057000233421;1.4035175840916911;1.323268076837012;0.99223885941146073;0.65117845357907467;0.79161509127476304;0.74145914924058864;1.1427066855139838;0.22986854049200955;0.42046112022187232;0.65117845357907467;0.8217086564952677;0.70133439561324906;0.69130320720641425;1.8549210623992607;2.5370418740640326;3.4298176422723374;4.0918760771234393;2.5972290045050421;4.723840946754037;4.3526869757011468;4.8843399612633949;5.8373028599127101;6.3990494106954632;6.5695796136116567;6.9206712078508765;7.4824177586336305;7.8936964833138612;7.9237900485343653;7.9940083673822091;8.83662819355634;8.9469712660315235;8.9469712660315235;8.9469712660315235;9.368281179118588;9.548842570441618;9.6190608892894591;9.6090297008826262;9.7996222806124891;9.8999341646808361;9.7594975269851485;9.8497782226466626;10.200869816885884;9.6993103965441403;9.3883435559322574;9.6892792081373038;9.3783123675254245;8.9770648312520294;9.3582499907117533;9.1275326573545517;8.8667217587768441;8.9670336428451929;9.649154454509965;9.5187490052211121;8.9168777008110194;9.3381876138980839;9.3381876138980839;9.3080940486775798;9.4485306863732674;9.6090297008826262;9.488655440000608;9.8798717878671685;9.3482188023049186;9.5388113820347815;9.5588737588484509
Gyro X : -0.4475203210241871;-0.43473402613778173;-0.46030661591059241;-0.33244366704653899;-0.39637514147856567;-0.28769163494412026;-0.42834087869457904;-0.35801625681934968;-0.33883681448974162;-0.40916143636497104;-0.28769163494412026;-0.37080255170575499;-0.43473402613778173;-0.40276828892176836;-0.39637514147856567;-0.38998199403536304;-0.39637514147856567;-0.41555458380817373;-0.37080255170575499;-0.28129848750091757;-0.35801625681934968;-0.51145179545621378;-0.27490534005771494;-0.35801625681934968;-0.33244366704653899;-0.39637514147856567;-0.35162310937614699;-1.1699459821060891;-1.3425609630725612;-0.38998199403536304;-0.031965737216013361;0.17900812840967484;0.66488733409307799;1.5791074184710601;2.6787287787019198;3.5481968309774832;4.0660417738768997;4.5966730116627215;5.1848425764373669;5.5620382755863247;6.1566009878041736;7.0068895977501287;7.256222348035033;7.1219662517277769;7.1155731042845742;7.5503071304223566;7.8443919128096793;7.6717769318432065;7.3649058545694785;6.9685307130909129;6.4890446548507121;6.1374215454745658;6.0543106287129307;5.6707217821207703;4.8651852042772337;4.2706224920593856;3.5481968309774832;2.8001985801227707;2.4421823233034208;1.8092607264263563;0.94618582159399556;0.40276828892176836;0.39637514147856567;-0.12146980142085077;-0.56899012244503788;-0.93979267415079282;-1.7453292519943295;-2.3846439963145967;-2.8769163494412027;-3.3691887025678082;-3.509837946318267;-3.6313077477391178;-3.8422816133648063;-4.5263483897874917;-4.9930481531412871;-5.3190986727446239;-5.3958164420630554;-5.3702438522902449;-6.1885667250201868;-6.2461050520090113;-6.3292159687706455;-6.7000185204764007;-6.8087020270108463;-6.1757804301337815;-5.7346532565527975;-5.1720562815509616;-4.5007758000146811;-3.6760597798415366;-2.5189000926218528;-1.6941840724487083;-0.82471602017314471;0.05114517954562138;0.84389546250275271;1.2466637514245211;1.6686114826758975;2.9024889392140132;4.9674755633684766;5.5364656858135142;5.5428588332567168;6.0607037761561333;7.3265469699102628;8.2088013170722309;7.6909563741728153;6.8790266488860752;8.0745452207649748;8.0809383682081783;8.4581340673571361;9.7367635559976708;8.905654388381322;7.4863756559903294;7.6845632267296127;7.748494701161639;6.7000185204764007;5.3574575574038397;4.3281608190482093;3.2988640806925789;2.793805432679568;2.0330208869384498;1.3169883732997505;1.329774668186156;1.2978089309701426;1.1443733923332784;0.97175841136680619;0.90143378949157682;0.99733100113961692;0.39637514147856567;0.19179442329608018;0.61374215454745651;0.53702438522902451;0.39637514147856567;0.47309291079699778;0.27490534005771494;0.19818757073928284;0.20458071818248552;0.1854012758528775;0.15982868608006681;0.35162310937614699;0.25572589772810689;0.46669976335379509;0.28769163494412026;0.28769163494412026;0.61374215454745651;0.22376016051209355;0.67128048153628062;0.84389546250275271;0.34522996193294431;0.40916143636497104;0.51784494289941652;0.27490534005771494;0.54341753267222714
Gyro Y : 2.1736701306889086;2.1161318037000845;2.2120290153481248;2.0074482971656393;2.1736701306889086;2.3207125218825699;2.1097386562568818;2.1033455088136792;2.0777729190408687;2.2695673423369489;2.2056358679049222;2.1353112460296928;2.2248153102345301;2.1672769832457059;2.1736701306889086;2.2503879000073406;2.1480975409160981;2.2376016051209353;2.0458071818248551;2.2439947525641379;2.1800632781321112;2.2312084576777327;2.0458071818248551;2.1992427204617195;2.3398919642121783;2.1672769832457059;2.1353112460296928;2.1864564255753138;2.1417043934728954;2.3079262269961647;2.301533079552962;2.2567810474505432;2.3334988167689756;2.301533079552962;1.9371236752904097;2.0074482971656393;1.9307305278472071;2.0394140343816525;1.9690894125064231;1.6558251877894921;1.5791074184710601;1.6110731556870734;1.2786294886405345;1.2722363411973319;0.99093785369641418;0.77996398807072609;0.30687107727372825;-0.12786294886405344;-0.90143378949157682;-0.86946805227556345;-1.3361678156293586;-1.9882688548360312;-2.454968618189826;-2.9919930034188509;-3.0623176252940802;-3.1582148369421201;-3.1390353946125122;-3.433120176999835;-3.4586927667726459;-3.3308298179085924;-3.6952392221711445;-3.3755818500110109;-3.592948863079902;-3.8167090235919954;-3.4075475872270244;-3.1134628048397013;-3.202966869044539;-2.947240971316432;-2.8577369071115948;-2.7682328429067571;-2.6659424838155146;-2.6403698940427036;-2.454968618189826;-2.4613617656330287;-2.2631741948937458;-2.3398919642121783;-2.1033455088136792;-2.2312084576777327;-2.2695673423369489;-2.378250848871394;-2.5189000926218528;-2.4741480605194344;-2.7490534005771492;-2.9919930034188509;-2.787412285236365;-2.8193780224523786;-2.710694515917933;-2.7170876633611356;-2.7362671056907439;-2.6467630414859062;-2.4677549130762317;-2.3974302912010024;-1.9051579380743964;-1.5471416812550467;-1.035689885798833;-0.46030661591059241;0.24293960284170155;0.27490534005771494;0.80553657784353672;1.949909970176815;1.9882688548360312;2.480541207962637;1.8795853483015856;1.1955185718788996;1.4256718798341959;0.81832287272994209;0.54341753267222714;0.60095585966105125;0.76078454574111798;1.0996213602308598;1.2978089309701426;1.0996213602308598;1.3425609630725612;1.368133552845372;1.6302525980166815;1.8284401687559644;1.7197566622215188;1.7645086943239376;1.7197566622215188;1.7645086943239376;1.834833316199167;1.9179442329608016;1.6813977775623028;1.8604059059719777;1.9179442329608016;1.796474431539951;1.8220470213127617;1.8412264636423696;1.8028675789831536;1.6238594505734787;1.7900812840967484;1.7133635147783162;1.6366457454598842;1.6174663031302761;1.7325429571079243;1.6877909250055054;1.521569091482236;1.5791074184710601;1.6941840724487083;1.7709018417671403;1.6302525980166815;1.8028675789831536;1.6558251877894921;1.48321020682302;1.8412264636423696;1.6238594505734787;1.7645086943239376;1.8284401687559644;1.8604059059719777;1.7389361045511269
Gyro Z : 5.2807397880854072;5.2168083136533809;5.114517954562138;5.1720562815509616;5.1400905443349485;5.2487740508693941;5.1209111020053406;5.0889453647893275;5.1209111020053406;5.012227595470895;5.2232014610965836;5.1720562815509616;5.2104151662101783;5.0953385122325301;5.1528768392213538;5.1081248071189354;5.2871329355286099;5.2168083136533809;5.2232014610965836;5.3063123778582177;5.1592699866645564;5.1848425764373669;5.1400905443349485;5.0697659224597196;5.1081248071189354;5.0314070378005029;4.9738687108116793;4.858792056834031;4.775681140072396;4.9355098261524635;5.0953385122325301;5.0186207429140977;4.9291166787092608;4.7884674349588012;4.4879895051282759;4.5902798642195188;4.705356518197167;4.3537334088210198;4.1811184278545479;3.89981994035363;3.823102171035198;3.7847432863759822;3.177394279271728;2.6595493363723119;2.8001985801227707;2.633976746599501;2.3910371437577993;2.0585934767112604;1.7709018417671403;1.5918937133574655;1.6174663031302761;1.1955185718788996;1.0996213602308598;1.2146980142085078;1.2210911616517104;0.53702438522902451;1.0420830332420357;0.93339952670759019;0.61374215454745651;0.74799825085471272;0.70324621875229398;0.95897211648040082;0.55620382755863251;0.61374215454745651;0.69045992386588861;0.61374215454745651;0.34522996193294431;0.35162310937614699;0.66488733409307799;0.46030661591059241;0.33244366704653899;0.47948605824020041;0.53063123778582177;0.49866550056980846;0.42194773125137636;0.31965737216013362;0.60095585966105125;0.52423809034261915;0.28769163494412026;0.2301533079552962;0.26851219261451226;0.19179442329608018;0.10229035909124276;0.057538326988824051;-0.019179442329608016;0.04475203210241871;0.10868350653444543;0.057538326988824051;-0.15343553863686413;-0.37080255170575499;-0.28129848750091757;-0.31326422471693094;-0.057538326988824051;-0.63931474432026725;-0.51784494289941652;-0.37080255170575499;-0.26211904517130957;-0.33883681448974162;-0.34522996193294431;0.39637514147856567;0.83110916761634746;1.4000992900613853;1.8220470213127617;0.86946805227556345;2.2248153102345301;1.9882688548360312;2.3271056693257726;2.9344546764300268;3.2924709332493762;3.4011544397838218;3.6249146002959152;3.9829308571152651;4.2450499022865742;4.2642293446161821;4.3089813767186014;4.8460057619476258;4.9163303838228547;4.9163303838228547;4.9163303838228547;5.1848425764373669;5.2999192304150151;5.3446712625174344;5.3382781150742318;5.4597479164950826;5.5236793909271089;5.4341753267222712;5.4917136537110958;5.7154738142231896;5.3958164420630554;5.197628871323773;5.3894232946198528;5.1912357238805704;4.9355098261524635;5.1784494289941643;5.0314070378005029;4.8651852042772337;4.9291166787092608;5.3638507048470423;5.2807397880854072;4.8971509414932468;5.165663134107759;5.165663134107759;5.1464836917781511;5.2359877559829888;5.3382781150742318;5.2615603457557993;5.5108930960407037;5.1720562815509616;5.2935260829718125;5.3063123778582177
COMMAND 1 SAMPLE 4
Accel X : -0.89640944460051053;-0.70438907183434829;-0.1788596305795887;0.013160742186573465;-0.057583605674644184;0.043479748412809598;0.083905090047791106;0.4578395001713701;0.73071055620749537;0.6801788791637684;0.85198658111243974;1.0844322955135834;1.1652829787835466;1.1046449663310742;1.4381540348196717;1.2461336620535095;1.4078350285934356;0.98336894142612974;1.5392173889071255;1.4886857118633987;1.1956019850097828;0.93283726438240278;0.97326260601738435;0.98336894142612974;1.1046449663310742;0.25571279199646252;-0.52247503447693155;-0.239497643032061;-0.42141168038947774;-1.0682171465491819;-1.4926832337164879;-1.4926832337164879;-1.5533212461689601;-1.896936650066303;-2.4527850975472987;-2.301190066416118;-2.2102330477374097;-2.4325724267298083;-2.0687443520149742;-1.8767239792488122;-2.088957022832465;-1.8767239792488122;-1.7857669605701039;-1.149067829819145;-1.1187488235929091;-1.4219388858552702;-1.411832550446525;-1.1894931714541264;-0.48204969284195004;0.23550012117897176;1.1147513017398196;0.62964720212004155;1.0339006184698567;1.7211314262645425;2.2971925445630288;3.8131428558748355;3.2876134146200759;2.2163418612930657;2.8328283212265339;3.0854867064451685;3.0046360231752054;2.5195319235554274;2.1557038488405933;2.0647468301618854;1.6099617367683432;1.8019821095345052;1.0541132892873475;0.72060422079874986;0.053586083821554976;-0.94694112164423749;-1.9980000041537569;-2.75597515980966;-3.7666087006841975;-4.3325634835739386;-5.5150047263971489;-6.6064889505416486;-7.4756337956937511;-7.6171224914161861;-8.1830772743059281;-9.8910479583838971;-11.083595536615851;-10.558066095361092;-11.316041251016996;-13.044224605912456;-12.963373922642491;-11.47774261755692;-10.083068331150059;-8.1325455972622009;-5.8889391365207269;-3.948522738041615;-2.2304457185549005;1.1147513017398196;3.4897401227949834;5.0461157757417716;4.9248397508368269;6.8248308076809581;13.717351556445305;14.960430811720988;11.453532424886342;10.068964473888224;10.574281244325492;10.73598261086542;11.685978139287485;12.373208947082171;11.67587180387874;10.655131927595457;9.695030063764646;9.3312019890498128;10.180134163384423;11.008853666901544;9.6748173929471548;7.421104596796936;6.0668556520250547;5.7737719251714381;6.258876024791217;6.1679190061125082;5.6929212419014759;5.2179234776904435;4.4296293158083033;3.7120795017873816;2.6812332900953533;2.4386812402854643;2.974317016948969;3.2269754021676036;3.1461247188976404;3.0652740356276773;2.5195319235554274;1.6908124200383063;2.4386812402854643;3.0753803710364229;2.6104889422341357;2.0546404947531398;2.2264481967018113;1.7615567678995236;0.98336894142612974;1.5190047180896349;2.1658101842493394;1.6301744075858338;1.0945386309223288;1.1450703079660558;0.83177391029494907;0.67007254375502312;1.1652829787835466;1.0440069538786021;1.4987920472721439;1.5594300597246165;1.2360273266447641;0.72060422079874986;0.9126245935649121;0.98336894142612974
Accel Y : 0.89653999257764738;1.0189644922964429;0.95775224243704526;0.84552978436148241;1.059772658869375;0.98835836736674409;1.0495706172261421;1.1107828670855397;1.0495706172261421;0.94755020079381225;1.3148236999501994;1.0495706172261421;0.93734815915057923;1.039368575582909;1.1413889920152389;0.93734815915057923;1.1311869503720058;0.82512570107501648;0.91694407586411331;1.059772658869375;1.1617930753017047;1.00876245065321;1.0801767421558408;1.0801767421558408;1.3250257415934323;1.2434094084475684;1.406642074739296;1.1209849087287727;1.1923992002314037;1.4168441163825292;1.1923992002314037;1.1617930753017047;1.3148236999501994;1.2230053251611026;1.0801767421558408;0.91694407586411331;1.1821971585881708;1.059772658869375;1.059772658869375;1.2332073668043355;1.0903787837990737;1.1005808254423068;1.3556318665231313;1.5290665744580918;1.6004808659607228;1.3148236999501994;1.5494706577445576;2.0493706982629734;1.6208849492471886;1.2332073668043355;1.3148236999501994;1.4372481996689952;0.59047874328065808;0.22320524412427092;0.019164411259611401;-0.60316012897760019;-1.1132622111392489;-2.357911291613672;-2.2252847502516433;-2.8884174570617867;-4.5207441199790628;-5.0818564103568766;-5.4389278678700306;-5.6633727840211554;-6.5305463236959591;-6.8876177812091139;-7.0304463642143755;-7.3773157800842961;-7.5405484463760244;-7.2242851554358012;-6.9182239061388122;-7.0304463642143755;-7.2548912803655004;-6.8774157395658797;-7.4589321132301603;-7.295699446938432;-7.4691341548733936;-7.632366821165121;-7.4589321132301603;-7.3671137384410628;-7.9078219455324108;-7.8976199038891775;-7.3059014885816653;-7.7343872375974501;-7.2854974052951995;-7.3263055718681311;-7.0100422809279088;-6.0714544497504752;-5.9286258667452136;-4.9798359939245467;-3.3271052477208047;-1.7457887930196934;-1.3377071272903744;-1.8172030845223244;0.25381136905396984;2.9063421962945437;4.2632137348445296;2.2534115311276333;1.9167441569009449;2.181997239625002;1.48825840788516;0.080376661119009249;-0.48073562925880436;-0.88881729498812345;-0.67457442048023097;-0.49093767090203738;-0.36851317118324167;-0.40932133775617363;-0.52154379583173627;-0.33790704625354279;-0.2766947963941449;0.02936645290284438;0.21300320248103796;0.43744811863216343;0.059972577832543304;-0.11346213010241728;0.10078074440547521;0.27421545234043576;0.11098278604870819;0.16199299426487307;0.46805424356186237;0.15179095262164008;0.070174619475776273;0.40684199370246449;0.10078074440547521;0.18239707755133902;0.23340728576750391;0.42724607698893047;0.22320524412427092;0.24360932741073688;0.39663995205923153;0.40684199370246449;0.49866036849156131;0.51906445177802718;0.25381136905396984;0.43744811863216343;0.35583178548629962;0.38643791041599856;0.47825628520509533;0.3048215772701347;0.32522566055660068;0.25381136905396984;0.38643791041599856;0.24360932741073688;0.27421545234043576;0.34562974384306661;0.49866036849156131;0.49866036849156131;0.39663995205923153;0.42724607698893047
Accel Z : 9.5989985124757915;9.4485306863732674;9.5789361356621203;9.4485306863732674;9.5187490052211121;9.548842570441618;9.8397470342398297;9.9500901067150131;9.8397470342398297;9.8297158458329932;9.990214860342352;10.120620309631207;10.090526744410701;9.9701524835286808;9.8196846574261585;9.709341584950975;9.6190608892894591;9.428468309559598;9.4084059327459286;9.5588737588484509;9.5388113820347815;9.5287801936279468;9.5187490052211121;9.5187490052211121;9.5388113820347815;9.5287801936279468;9.217813353016064;9.4184371211527633;9.0071583964725317;9.1776885993887252;9.4384994979664327;9.1175014689477152;9.4184371211527633;9.488655440000608;9.3883435559322574;9.3281564254912492;9.4986866284074427;9.6290920776962956;9.7795599037988197;9.6993103965441403;9.3181252370844145;9.7294039617646444;9.6290920776962956;10.020308425562856;10.220932193699554;10.361368831395241;10.822803498109646;11.143801527128362;10.93314657058483;11.274206976417217;11.775766396758961;11.254144599603546;10.561992599531941;11.003364889432675;10.842865874923318;10.943177758991665;10.050401990783362;9.2980628602707451;9.4986866284074427;8.6961915558606524;7.8435405412796868;7.1814821064285841;6.7401098165278492;6.0981137584904159;5.5463983961144976;5.0849637294000933;4.5232171786173394;4.1921879611917889;3.8611587437662371;3.3997240770518329;2.7176032653870608;2.2260750334521515;1.7044532362967375;1.393486395684856;0.75149033764742357;0.079400714389486302;-0.22153493781556022;0.280024482526184;0.1997749752715049;-0.13125424215404627;0.079400714389486302;0.69130320720641425;0.80164627968159796;0.5107418158833863;-0.10116067693354161;0.32014923615352353;0.24993091730567932;0.32014923615352353;0.049307149168981643;0.35024280137402819;0.59099132313806535;0.53080419269705603;-0.051004734899367188;-0.94378050310767181;-0.75318792337780904;0.93205172897045141;2.7878215842349046;2.1057007725701329;3.1389131784741258;5.1752444250616074;5.6166167149623414;5.7971781062853696;7.0209830919192262;7.311887555717437;7.8936964833138612;8.0742578746368885;8.2548192659599167;8.0541954978232191;8.2748816427735861;8.1946321355189067;8.3651623384351002;7.9940083673822091;7.8736341065001909;7.5426048890746396;7.7632910340250065;7.7532598456181727;8.0642266862300538;8.0541954978232191;8.0140707441958785;8.0341331210095479;8.4454118456897795;8.5457237297581283;9.0071583964725317;8.936940077624687;8.7262851210811565;9.0773767153203764;9.1877197877955599;8.936940077624687;9.4084059327459286;9.5689049472552856;9.6090297008826262;9.4786242515937733;9.5989985124757915;9.217813353016064;8.936940077624687;9.278000483457074;9.6391232661031303;9.217813353016064;9.2479069182365699;9.2378757298297351;9.5087178168142756;9.278000483457074;9.2579381066434046;9.267969295050241;9.4184371211527633;9.6391232661031303;9.5889673240689568;9.207782164609231;9.3080940486775798;9.5388113820347815
Gyro X : -0.05114517954562138;0.070324621875229393;0.40276828892176836;0.52423809034261915;0.47948605824020041;0.54341753267222714;0.56899012244503788;0.80553657784353672;0.97815155881000893;0.94618582159399556;1.0548693281284409;1.2019117193221025;1.2530568988677238;1.2146980142085078;1.4256718798341959;1.3042020784133452;1.406492437504588;1.1379802448900758;1.4896033542662226;1.4576376170502092;1.2722363411973319;1.1060145076740624;1.1315870974468729;1.1379802448900758;1.2146980142085078;0.67767362897948324;0.1854012758528775;0.36440940426255231;0.24933275028490423;-0.15982868608006681;-0.42834087869457904;-0.42834087869457904;-0.46669976335379509;-0.68406677642268598;-1.035689885798833;-0.93979267415079282;-0.88225434716196882;-1.0229035909124276;-0.79275028295713135;-0.67128048153628062;-0.80553657784353672;-0.67128048153628062;-0.61374215454745651;-0.21097386562568818;-0.19179442329608018;-0.38358884659216036;-0.37719569914895767;-0.23654645539849889;0.21097386562568818;0.66488733409307799;1.2210911616517104;0.91422008437798219;1.1699459821060891;1.6046800082438708;1.9690894125064231;2.9280615289868241;2.5956178619402852;1.9179442329608016;2.3079262269961647;2.4677549130762317;2.4166097335306103;2.1097386562568818;1.8795853483015856;1.8220470213127617;1.5343553863686414;1.6558251877894921;1.1827322769924944;0.97175841136680619;0.54981068011542988;-0.083110916761634748;-0.74799825085471272;-1.227484309094913;-1.8667990534151804;-2.2248153102345301;-2.9728135610892426;-3.6632734849551314;-4.213084165070561;-4.3025882292753987;-4.6606044860947486;-5.7410464039960001;-6.4954378022939148;-6.1629941352473763;-6.642480193487577;-7.7357084062752337;-7.6845632267296127;-6.7447705525788191;-5.8625162054168509;-4.6286387488787346;-3.2093600164877416;-1.9818757073928284;-0.89504064204837419;1.2210911616517104;2.7234808108043382;3.7080255170575498;3.6313077477391178;4.8332194670612205;9.1933460233254429;9.9797031588393725;7.7612809960480442;6.8854197963292778;7.2050771684894119;7.3073675275806549;7.9083233872417056;8.343057413379487;7.901930239798503;7.256222348035033;6.6488733409307796;6.4187200329754832;6.9557444182045076;7.4799825085471268;6.6360870460443744;5.2104151662101783;4.3537334088210198;4.1683321329681426;4.4752032102418706;4.417664883253047;4.1171869534225207;3.8167090235919954;3.3180435230221872;2.8641300545547974;2.2120290153481248;2.0585934767112604;2.3974302912010024;2.557258977281069;2.5061137977354475;2.454968618189826;2.1097386562568818;1.5855005659142627;2.0585934767112604;2.4613617656330287;2.1672769832457059;1.8156538738695589;1.9243373804040045;1.6302525980166815;1.1379802448900758;1.4768170593798173;1.8859784957447883;1.5471416812550467;1.2083048667653051;1.2402706039813185;1.0420830332420357;0.93979267415079282;1.2530568988677238;1.1763391295492918;1.4640307644934121;1.5023896491526281;1.2978089309701426;0.97175841136680619;1.0932282127876569;1.1379802448900758
Gyro Y : 1.758115546880735;1.834833316199167;1.796474431539951;1.7261498096647216;1.8604059059719777;1.8156538738695589;1.8540127585287749;1.8923716431879911;1.8540127585287749;1.7900812840967484;2.0202345920520446;1.8540127585287749;1.7836881366535455;1.8476196110855723;1.911551085517599;1.7836881366535455;1.9051579380743964;1.7133635147783162;1.7709018417671403;1.8604059059719777;1.9243373804040045;1.8284401687559644;1.873192200858383;1.873192200858383;2.0266277394952472;1.9754825599496257;2.0777729190408687;1.8987647906311937;1.9435168227336124;2.0841660664840713;1.9435168227336124;1.9243373804040045;2.0202345920520446;1.9626962650632205;1.873192200858383;1.7709018417671403;1.9371236752904097;1.8604059059719777;1.8604059059719777;1.9690894125064231;1.8795853483015856;1.8859784957447883;2.0458071818248551;2.1544906883593007;2.1992427204617195;2.0202345920520446;2.1672769832457059;2.480541207962637;2.2120290153481248;1.9690894125064231;2.0202345920520446;2.0969523613704766;1.5663211235846548;1.3361678156293586;1.2083048667653051;0.81832287272994209;0.49866550056980846;-0.28129848750091757;-0.19818757073928284;-0.61374215454745651;-1.6366457454598842;-1.9882688548360312;-2.2120290153481248;-2.3526782590985835;-2.8960957917708106;-3.1198559522829044;-3.2093600164877416;-3.4267270295566323;-3.5290173886478753;-3.3308298179085924;-3.1390353946125122;-3.2093600164877416;-3.3500092602382003;-3.1134628048397013;-3.4778722091022538;-3.3755818500110109;-3.4842653565454564;-3.5865557156366994;-3.4778722091022538;-3.4203338821134297;-3.7591706966031713;-3.7527775491599686;-3.3819749974542139;-3.6504871900687261;-3.3691887025678082;-3.3947612923406192;-3.1965737216013363;-2.6084041568266905;-2.5189000926218528;-1.9243373804040045;-0.88864749460517145;0.10229035909124276;0.35801625681934968;0.057538326988824051;1.3553472579589665;3.0175655931916614;3.8678542031376169;2.6084041568266905;2.3974302912010024;2.5636521247242716;2.1289180985864897;1.2466637514245211;0.89504064204837419;0.63931474432026725;0.77357084062752335;0.88864749460517145;0.96536526392360356;0.93979267415079282;0.86946805227556345;0.98454470625321155;1.0229035909124276;1.2146980142085078;1.329774668186156;1.4704239119366147;1.2338774565381159;1.1251939500036703;1.2594500463109264;1.368133552845372;1.2658431937541292;1.2978089309701426;1.4896033542662226;1.2914157835269398;1.2402706039813185;1.4512444696070066;1.2594500463109264;1.3105952258565479;1.3425609630725612;1.4640307644934121;1.3361678156293586;1.3489541105157639;1.444851322163804;1.4512444696070066;1.5087827965958307;1.521569091482236;1.3553472579589665;1.4704239119366147;1.4192787323909932;1.4384581747206013;1.4959965017094254;1.3873129951749799;1.4000992900613853;1.3553472579589665;1.4384581747206013;1.3489541105157639;1.368133552845372;1.4128855849477906;1.5087827965958307;1.5087827965958307;1.444851322163804;1.4640307644934121
Gyro Z : 5.3318849676310291;5.2359877559829888;5.3190986727446239;5.2359877559829888;5.2807397880854072;5.2999192304150151;5.4853205062678931;5.5556451281431221;5.4853205062678931;5.4789273588246905;5.5812177179159335;5.6643286346775676;5.6451491923479598;5.5684314230295273;5.4725342113814879;5.4022095895062581;5.3446712625174344;5.2232014610965836;5.2104151662101783;5.3063123778582177;5.2935260829718125;5.2871329355286099;5.2807397880854072;5.2807397880854072;5.2935260829718125;5.2871329355286099;5.0889453647893275;5.2168083136533809;4.9546892684820714;5.0633727750165169;5.2295946085397862;5.0250138903573003;5.2168083136533809;5.2615603457557993;5.197628871323773;5.1592699866645564;5.267953493199002;5.351064409960637;5.4469616216086765;5.3958164420630554;5.1528768392213538;5.4149958843926633;5.351064409960637;5.6003971602455414;5.7282601091095948;5.8177641733144316;6.1118489557017552;6.3164296738842403;6.1821735775769842;6.3995405906458753;6.7191979628060086;6.3867542957594701;5.9456271221784851;6.2269256096794026;6.1246352505881605;6.1885667250201868;5.6195766025751492;5.1400905443349485;5.267953493199002;4.7565016977427881;4.213084165070561;3.7911364338191849;3.509837946318267;3.100676509953296;2.7490534005771492;2.454968618189826;2.0969523613704766;1.8859784957447883;1.6750046301191002;1.3809198477317772;0.94618582159399556;0.63292159687706462;0.30047792983052563;0.10229035909124276;-0.30687107727372825;-0.73521195596830735;-0.92700637926438745;-0.60734900710425388;-0.65849418664987525;-0.86946805227556345;-0.73521195596830735;-0.34522996193294431;-0.27490534005771494;-0.46030661591059241;-0.85028860994595545;-0.58177641733144314;-0.62652844943386188;-0.58177641733144314;-0.75439139829791535;-0.56259697500183514;-0.40916143636497104;-0.4475203210241871;-0.81832287272994209;-1.3873129951749799;-1.2658431937541292;-0.19179442329608018;0.99093785369641418;0.55620382755863251;1.2146980142085078;2.5125069451786501;2.793805432679568;2.9088820866572158;3.6888460747279419;3.8742473505808195;4.2450499022865742;4.3601265562642224;4.4752032102418706;4.3473402613778171;4.4879895051282759;4.4368443255826548;4.5455278321171004;4.3089813767186014;4.2322636074001689;4.0212897417744813;4.16193898552494;4.1555458380817374;4.3537334088210198;4.3473402613778171;4.3217676716050066;4.3345539664914119;4.5966730116627215;4.6606044860947486;4.9546892684820714;4.9099372363796521;4.775681140072396;4.9994413005844898;5.0697659224597196;4.9099372363796521;5.2104151662101783;5.3127055253014204;5.3382781150742318;5.2551671983125967;5.3318849676310291;5.0889453647893275;4.9099372363796521;5.1273042494485432;5.3574575574038397;5.0889453647893275;5.1081248071189354;5.1017316596757327;5.2743466406422046;5.1273042494485432;5.114517954562138;5.1209111020053406;5.2168083136533809;5.3574575574038397;5.3254918201878265;5.0825522173461248;5.1464836917781511;5.2935260829718125
COMMAND 1 SAMPLE 5
Accel X : -1.1894931714541264;-1.149067829819145;-1.1591741652278904;-1.2905565255415803;-1.149067829819145;-1.0176854695054551;-1.4724705628989971;-1.2905565255415803;-1.0985361527754181;-0.85598410296552896;-1.149067829819145;-1.6139592586214322;-1.2703438547240895;-1.0277918049142005;-1.6644909356651594;-1.5836402523951962;-1.5027895691252333;-1.6644909356651594;-1.6341719294389232;-1.7958732959788493;-1.6341719294389232;-1.5533212461689601;-1.6341719294389232;-1.6745972710739048;-1.9373619917012845;-1.7655542897526131;-2.4426787621385535;-2.1799140415111733;-1.9272556562925391;-1.6644909356651594;-0.54268770529442223;-0.20917863680582485;0.52858384803258773;1.2764526682797457;2.5700636005991537;3.8232491912835807;3.4796337873862377;2.7924029795915524;3.3381450916638031;4.0051632286409982;4.2376089430421411;5.8243036022151653;6.117387329068781;4.3993103095820674;2.8126156504090432;2.8631473274527699;2.8934663336790059;2.3881495632417371;1.7918757741257598;0.74081689161624065;-0.239497643032061;-0.75492074887807525;-0.239497643032061;-0.73470807806058458;-1.1187488235929091;-1.9474683271100297;-3.210760253203202;-4.605434539610064;-5.6665997575283287;-6.2729798820530522;-6.9399980190302468;-7.7383985163211317;-8.496373671977036;-9.6080705669390252;-10.962319511710907;-12.276143114847805;-12.933054916416257;-14.004326469743265;-14.327729202823118;-14.873471314895367;-14.691557277537951;-13.650604730437177;-12.953267587233746;-11.831464356863009;-10.558066095361092;-9.2442424922241919;-7.8899935474523115;-6.4953192610454495;-5.0703259684123516;-2.9581018679845679;0.12433043168277262;2.0142151531181582;3.1966563959413676;4.6317560239832112;7.4817426092494079;13.100865096511837;16.314679756492868;15.890213669325563;13.272672798460508;10.341835529924349;12.585441990665823;15.96095801718678;15.304046215618332;12.747143357205751;12.120550561863535;12.039699878593574;12.929057394563166;12.696611680162022;11.362575406207633;9.6546047221296636;7.8354643485554964;6.5721724224623239;4.6115433531657208;0.86209291652118525;-1.5937465878039416;-1.3815135442202888;-1.5836402523951962;-1.8362986376138308;-0.22939130762331561;0.57911552507631459;0.19507477954399027;-1.2501311839065989;-1.1187488235929091;-0.21928497221457022;0.073798754639045741;-0.82566509673929289;-1.6745972710739048;-1.3006628609503257;-1.0378981403229459;-1.846404973022576;-1.7453416189351223;-0.88630310919176514;-0.75492074887807525;-0.85598410296552896;-0.239497643032061;-0.95704745705298278;-1.2905565255415803;-0.87619677378301974;-0.36077366793700555;-1.0581108111404365;-1.1793868360453812;-0.52247503447693155;-0.83577143214803828;-1.1288551590016542;-0.61343205315563998;-0.63364472397313076;-1.0985361527754181;-0.72460174265183908;-0.51236869906818616;-0.87619677378301974;-0.90651578000925592;-0.61343205315563998;-0.50226236365944077;-0.80545242592180211;-0.85598410296552896;-0.44162435120696852;-1.0075791340967097;-1.0985361527754181;-0.97726012787047356;-0.83577143214803828
Accel Y : 0.90674203422088029;0.81492365943178358;0.79451957614531754;0.65169099314005585;0.77411549285885162;0.75371140957238569;0.81492365943178358;0.54967057670772612;0.41704403534569745;0.51906445177802718;0.51906445177802718;0.53946853506449322;0.5292664934212602;0.6006807849238911;0.40684199370246449;0.5292664934212602;0.57007465999419205;0.40684199370246449;0.55987261835095914;0.92714611750734621;0.71290324299945373;0.43744811863216343;0.64148895149682295;0.80472161778855056;1.1311869503720058;0.68229711806975479;1.0189644922964429;1.406642074739296;1.5086624911716258;1.2740155333772676;1.3556318665231313;1.2332073668043355;0.99856040900997711;0.82512570107501648;0.82512570107501648;0.080376661119009249;-0.39911929611294061;-0.31750296296707681;-0.72558462869639584;-1.4397275437227042;-2.0212439173869838;-2.4191235414730698;-2.9088215403482525;-3.1128623732129124;-3.9596318296012494;-4.6737747446275577;-5.0920584520001091;-5.1634727435027408;-6.1326666996098727;-6.4693340738365617;-6.2856973242583685;-6.5815565319121241;-7.0610524891440738;-7.1834769888628696;-7.1018606557170063;-6.8774157395658797;-6.3571116157609993;-6.0510503664640094;-5.9286258667452136;-5.5919584925185255;-5.8164034086696512;-5.1736747851459741;-4.8370074109192851;-4.3575114536873354;-4.3881175786170337;-4.1330665375362097;-4.0004399961741814;-3.65357058030426;-3.7963991633095215;-4.143268579179443;-4.092258370963278;-4.3575114536873354;-4.1534706208226755;-3.9494297879580165;-3.9596318296012494;-4.449329828476432;-4.194278787395608;-3.6841767052339587;-3.3781154559369697;-3.5107419972989979;-2.3477092499704391;-0.89901933663135647;0.17219503590810603;1.5800767826742568;3.8857381940449089;5.3752362739569239;3.4368483617426584;0.95775224243704526;0.35583178548629962;-0.26649275475091194;-0.78679687855579361;-1.511141835225335;-1.8274051261655573;-2.1232643338193138;-1.5927581683711987;-1.4907377519388691;-1.2764948774309766;-1.4907377519388691;-1.062252002923084;-0.60316012897760019;-0.4603315459723385;-0.64396829555053192;-0.15427029667534919;0.28441749398366878;0.31502361891336772;0.55987261835095914;0.33542770219983364;0.24360932741073688;-0.22568458817798001;0.02936645290284438;0.23340728576750391;0.070174619475776273;-0.24608867146444596;0.50886241013479427;0.54967057670772612;0.36603382712953259;0.19259911919457198;0.43744811863216343;0.48845832684832829;0.48845832684832829;0.070174619475776273;0.27421545234043576;0.47825628520509533;-0.11346213010241728;0.37623586877276555;-0.17467437996181515;0.02936645290284438;0.22320524412427092;0.23340728576750391;0.27421545234043576;0.21300320248103796;0.26401341069720285;0.34562974384306661;-0.072653963529485388;0.13138686933517416;0.35583178548629962;0.49866036849156131;-0.021643755313320502;0.20280116083780497;0.42724607698893047;0.059972577832543304;0.34562974384306661;0.34562974384306661;0.40684199370246449;0.35583178548629962;0.55987261835095914;0.40684199370246449;0.41704403534569745;0.42724607698893047;0.71290324299945373
Accel Z : 9.5689049472552856;9.6993103965441403;9.548842570441618;9.5588737588484509;9.649154454509965;9.7795599037988197;9.8196846574261585;9.3582499907117533;9.548842570441618;9.6892792081373038;9.4986866284074427;9.3080940486775798;9.3381876138980839;9.4986866284074427;9.3883435559322574;9.1776885993887252;9.2479069182365699;9.4585618747801021;9.5187490052211121;9.3783123675254245;9.5087178168142756;9.2880316718639087;9.3983747443390921;9.5989985124757915;9.5588737588484509;10.040370802376525;9.8598094110534973;10.411524773429417;10.361368831395241;10.551961411125106;10.722491614041298;11.565111440215428;11.565111440215428;11.946296599675154;11.655392135876941;11.635329759063273;11.775766396758961;11.906171846047814;11.334394106858225;10.742553990854969;10.240994570513223;9.6792480197304691;9.4184371211527633;8.6761291790469812;7.2717628020900982;6.5495172367979855;6.0880825700835821;5.1351196714342677;4.0015953814619261;3.4097552654586676;3.1389131784741258;2.7577280190144;2.5771666276913723;2.7376656422007306;2.1157319609769676;1.7546091783309119;1.5138606565668746;1.2430185695823328;0.79161509127476304;0.37030517818769793;-0.040973546492532313;0.10949427960999095;-0.051004734899367188;-0.31181563347707414;-0.051004734899367188;0.029244772355311876;-0.33187801029074393;-0.63281366249579041;-0.82340624222565317;-1.0340611987691859;-1.0039676335486811;-0.95381169151450673;-1.3049032857537277;-0.79331267700514863;-0.42215870595225791;-0.45225227117276257;-0.18141018418822069;0.35024280137402819;-0.67293841612312999;-0.91368693788716726;-0.37200276391808346;0.029244772355311876;0.31011804774668866;-1.4954958654835904;-0.46228345957959743;3.8210339901388979;3.8611587437662371;3.2392250625424746;3.8711899321730727;3.4599112074928424;4.6636538163130279;6.2887063382202797;6.3589246570681235;5.4862112656734885;6.0680201932699127;6.1783632657450962;6.2084568309656003;6.3488934686612888;6.3689558454749582;6.1081449468972515;5.4661488888598191;5.9275835555742233;8.6259732370128077;7.2115756716490882;7.0510766571397303;8.4454118456897795;9.3983747443390921;9.6692168313236362;9.8497782226466626;10.612148541566114;9.8297158458329932;9.2880316718639087;9.6290920776962956;10.341306454581574;10.01027723715602;9.7996222806124891;9.6792480197304691;9.709341584950975;9.9701524835286808;9.5087178168142756;9.4685930631869368;9.649154454509965;9.5689049472552856;9.3482188023049186;9.5889673240689568;9.3080940486775798;9.4384994979664327;9.3983747443390921;9.488655440000608;9.4384994979664327;9.5187490052211121;9.649154454509965;9.709341584950975;9.3281564254912492;9.5989985124757915;9.7996222806124891;9.4786242515937733;9.5588737588484509;9.6792480197304691;9.4685930631869368;9.428468309559598;9.488655440000608;9.7394351501714791;9.5388113820347815;9.4184371211527633;9.5789361356621203;9.5789361356621203;9.4685930631869368;9.3080940486775798;9.5989985124757915
Gyro X : -0.23654645539849889;-0.21097386562568818;-0.21736701306889086;-0.30047792983052563;-0.21097386562568818;-0.12786294886405344;-0.41555458380817373;-0.30047792983052563;-0.17900812840967484;-0.02557258977281069;-0.21097386562568818;-0.50505864801301115;-0.28769163494412026;-0.13425609630725613;-0.53702438522902451;-0.48587920568340309;-0.43473402613778173;-0.53702438522902451;-0.51784494289941652;-0.62013530199065925;-0.51784494289941652;-0.46669976335379509;-0.51784494289941652;-0.54341753267222714;-0.70963936619549661;-0.60095585966105125;-1.0292967383556302;-0.86307490483236082;-0.70324621875229398;-0.53702438522902451;0.17261498096647215;0.38358884659216036;0.85028860994595545;1.3233815207429531;2.1417043934728954;2.9344546764300268;2.7170876633611356;2.2823536372233542;2.6275835991562984;3.0495313304076745;3.1965737216013363;4.2002978701841558;4.3856991460370329;3.2988640806925789;2.2951399321097594;2.3271056693257726;2.3462851116553809;2.0266277394952472;1.6494320403462894;0.98454470625321155;0.36440940426255231;0.038358884659216032;0.36440940426255231;0.05114517954562138;-0.19179442329608018;-0.71603251363869935;-1.5151759440390333;-2.3974302912010024;-3.0687107727372829;-3.4522996193294433;-3.8742473505808195;-4.3793059985938303;-4.858792056834031;-5.5620382755863247;-6.4187200329754832;-7.2498292005918303;-7.6653837844000039;-8.343057413379487;-8.5476381315619729;-8.8928680934949167;-8.7777914395172694;-8.1192972528673941;-7.6781700792864092;-6.9685307130909129;-6.1629941352473763;-5.3318849676310291;-4.4752032102418706;-3.592948863079902;-2.6915150735883251;-1.3553472579589665;0.59456271221784851;1.7900812840967484;2.5380795349514611;3.4459064718862402;5.2487740508693941;8.8033640292900799;10.83638491622853;10.567872723614018;8.9120475358245255;7.0580347772957506;8.4773135096867431;10.612624755716435;10.197070171908262;8.579603868777987;8.1832287272994204;8.1320835477537994;8.6946805227556343;8.5476381315619729;7.7037426690592206;6.6233007511579682;5.4725342113814879;4.6733907809811539;3.433120176999835;1.0612624755716435;-0.49227235312660578;-0.35801625681934968;-0.48587920568340309;-0.64570789176346988;0.37080255170575499;0.88225434716196882;0.63931474432026725;-0.27490534005771494;-0.19179442329608018;0.37719569914895767;0.56259697500183514;-0.0063931474432026725;-0.54341753267222714;-0.30687107727372825;-0.14064924375045879;-0.65210103920667262;-0.58816956477464588;-0.04475203210241871;0.038358884659216032;-0.02557258977281069;0.36440940426255231;-0.089504064204837419;-0.30047792983052563;-0.038358884659216032;0.28769163494412026;-0.15343553863686413;-0.2301533079552962;0.1854012758528775;-0.012786294886405345;-0.19818757073928284;0.12786294886405344;0.1150766539776481;-0.17900812840967484;0.057538326988824051;0.19179442329608018;-0.038358884659216032;-0.057538326988824051;0.12786294886405344;0.19818757073928284;0.0063931474432026725;-0.02557258977281069;0.23654645539849889;-0.12146980142085077;-0.17900812840967484;-0.10229035909124276;-0.012786294886405345
Gyro Y : 1.7645086943239376;1.7069703673351135;1.6941840724487083;1.6046800082438708;1.6813977775623028;1.6686114826758975;1.7069703673351135;1.5407485338118441;1.4576376170502092;1.521569091482236;1.521569091482236;1.5343553863686414;1.5279622389254388;1.5727142710278574;1.4512444696070066;1.5279622389254388;1.5535348286982493;1.4512444696070066;1.5471416812550467;1.7772949892103429;1.6430388929030868;1.4704239119366147;1.5982868608006682;1.7005772198919109;1.9051579380743964;1.6238594505734787;1.834833316199167;2.0777729190408687;2.1417043934728954;1.9946620022792338;2.0458071818248551;1.9690894125064231;1.8220470213127617;1.7133635147783162;1.7133635147783162;1.2466637514245211;0.94618582159399556;0.99733100113961692;0.74160510341150998;0.29408478238732294;-0.070324621875229393;-0.31965737216013362;-0.62652844943386188;-0.75439139829791535;-1.2850226360837371;-1.7325429571079243;-1.9946620022792338;-2.0394140343816525;-2.6467630414859062;-2.8577369071115948;-2.7426602531339466;-2.9280615289868241;-3.2285394588173495;-3.3052572281357815;-3.2541120485901605;-3.1134628048397013;-2.787412285236365;-2.5956178619402852;-2.5189000926218528;-2.3079262269961647;-2.4485754707466234;-2.0458071818248551;-1.834833316199167;-1.5343553863686414;-1.5535348286982493;-1.3937061426181825;-1.3105952258565479;-1.0932282127876569;-1.1827322769924944;-1.4000992900613853;-1.368133552845372;-1.5343553863686414;-1.406492437504588;-1.2786294886405345;-1.2850226360837371;-1.5918937133574655;-1.4320650272773987;-1.112407655117265;-0.92061323182118482;-1.0037241485828197;-0.27490534005771494;0.63292159687706462;1.3042020784133452;2.1864564255753138;3.6313077477391178;4.5647072744467083;3.3500092602382003;1.796474431539951;1.4192787323909932;1.0292967383556302;0.70324621875229398;0.24933275028490423;0.05114517954562138;-0.13425609630725613;0.19818757073928284;0.26211904517130957;0.39637514147856567;0.26211904517130957;0.53063123778582177;0.81832287272994209;0.90782693693477945;0.79275028295713135;1.0996213602308598;1.3745267002885746;1.3937061426181825;1.5471416812550467;1.406492437504588;1.3489541105157639;1.0548693281284409;1.2146980142085078;1.3425609630725612;1.2402706039813185;1.0420830332420357;1.5151759440390333;1.5407485338118441;1.4256718798341959;1.3169883732997505;1.4704239119366147;1.5023896491526281;1.5023896491526281;1.2402706039813185;1.368133552845372;1.4959965017094254;1.1251939500036703;1.4320650272773987;1.0868350653444543;1.2146980142085078;1.3361678156293586;1.3425609630725612;1.368133552845372;1.329774668186156;1.3617404054021691;1.4128855849477906;1.150766539776481;1.2786294886405345;1.4192787323909932;1.5087827965958307;1.1827322769924944;1.3233815207429531;1.4640307644934121;1.2338774565381159;1.4128855849477906;1.4128855849477906;1.4512444696070066;1.4192787323909932;1.5471416812550467;1.4512444696070066;1.4576376170502092;1.4640307644934121;1.6430388929030868
Gyro Z : 5.3127055253014204;5.3958164420630554;5.2999192304150151;5.3063123778582177;5.3638507048470423;5.4469616216086765;5.4725342113814879;5.1784494289941643;5.2999192304150151;5.3894232946198528;5.267953493199002;5.1464836917781511;5.165663134107759;5.267953493199002;5.197628871323773;5.0633727750165169;5.1081248071189354;5.2423809034261915;5.2807397880854072;5.1912357238805704;5.2743466406422046;5.1336973968917459;5.2040220187669757;5.3318849676310291;5.3063123778582177;5.6131834551319466;5.4981068011542984;5.8497299105304457;5.8177641733144316;5.9392339747352825;6.0479174812697281;6.5849418664987525;6.5849418664987525;6.8278814693404541;6.642480193487577;6.6296938986011718;6.7191979628060086;6.8023088795676436;6.4378994753050911;6.0607037761561333;5.7410464039960001;5.3830301471766502;5.2168083136533809;4.7437154028563828;3.848674760808009;3.3883681448974166;3.0942833625100934;2.4869343554058396;1.7645086943239376;1.3873129951749799;1.2146980142085078;0.97175841136680619;0.85668175738915808;0.95897211648040082;0.56259697500183514;0.33244366704653899;0.17900812840967484;0.0063931474432026725;-0.28129848750091757;-0.54981068011542988;-0.81192972528673935;-0.71603251363869935;-0.81832287272994209;-0.98454470625321155;-0.81832287272994209;-0.76717769318432072;-0.99733100113961692;-1.189125424435697;-1.3105952258565479;-1.444851322163804;-1.4256718798341959;-1.3937061426181825;-1.6174663031302761;-1.2914157835269398;-1.0548693281284409;-1.074048770458049;-0.90143378949157682;-0.56259697500183514;-1.2146980142085078;-1.368133552845372;-1.0229035909124276;-0.76717769318432072;-0.58816956477464588;-1.7389361045511269;-1.0804419179012517;1.6494320403462894;1.6750046301191002;1.2786294886405345;1.6813977775623028;1.4192787323909932;2.1864564255753138;3.2221463113741469;3.2668983434765657;2.710694515917933;3.0814970676236881;3.1518216894989175;3.1710011318285254;3.2605051960333631;3.2732914909197683;3.1070696573964987;2.6979082210315277;2.9919930034188509;4.7117496656403697;3.8103158761487927;3.7080255170575498;4.5966730116627215;5.2040220187669757;5.3766369997334476;5.4917136537110958;5.9775928593944991;5.4789273588246905;5.1336973968917459;5.351064409960637;5.8049778784280264;5.5940040128023387;5.4597479164950826;5.3830301471766502;5.4022095895062581;5.5684314230295273;5.2743466406422046;5.2487740508693941;5.3638507048470423;5.3127055253014204;5.1720562815509616;5.3254918201878265;5.1464836917781511;5.2295946085397862;5.2040220187669757;5.2615603457557993;5.2295946085397862;5.2807397880854072;5.3638507048470423;5.4022095895062581;5.1592699866645564;5.3318849676310291;5.4597479164950826;5.2551671983125967;5.3063123778582177;5.3830301471766502;5.2487740508693941;5.2232014610965836;5.2615603457557993;5.421389031835866;5.2935260829718125;5.2168083136533809;5.3190986727446239;5.3190986727446239;5.2487740508693941;5.1464836917781511;5.3318849676310291
COMMAND 2 SAMPLE 1
Accel X : -0.92672845082674671;-0.51236869906818616;-0.69428273642560301;-0.98736646327921895;-0.84587776755678368;-1.1288551590016542;-1.1288551590016542;-0.80545242592180211;-0.86609043837427446;-0.94694112164423749;-0.86609043837427446;-0.98736646327921895;-0.76502708428682065;-0.75492074887807525;-1.0581108111404365;-1.0884298173666729;-1.2501311839065989;-1.391619879629034;-1.4219388858552702;-1.896936650066303;-2.4831041037735346;-2.5235294454085166;-2.5235294454085166;-2.9884208742108038;-3.2208665886119476;-2.8873575201233499;-2.6245927994959701;-3.210760253203202;-3.1299095699332393;-2.9581018679845679;-1.1187488235929091;-0.5831130469294038;0.24560645658771715;1.2057083204185279;1.7110250908557969;2.5599572651904086;2.73176496713908;2.5801699360078998;2.9035726690877515;3.6615478247436553;3.9142062099622894;4.7025003718444287;4.4599483220345402;4.9248397508368269;5.8950479500763837;6.5923850932798143;6.258876024791217;6.8753624847246853;7.9163150318254587;8.1285480754091122;8.421631802262727;9.0482245976049409;9.9881137906182609;10.19024049879317;10.058858138479479;10.564174908916748;10.938109319040326;10.837045964952875;10.766301617091656;11.312043729163907;11.180661368850215;11.241299381302689;11.968955530732355;11.746616151739957;11.514170437338812;11.231193045893944;10.483324225646784;10.240772175836895;10.624812921369221;10.210453169610659;10.119496150931951;10.109389815523205;10.149815157158189;10.008326461435752;10.271091182063133;10.897683977405345;11.231193045893944;11.120023356397743;12.029593543184829;11.867892176644901;11.999274536958591;12.251932922177227;12.191294909724753;12.11044422645479;12.019487207776082;11.82746683500992;11.595021120608777;11.463638760295087;11.291831058346414;11.352469070798888;11.332256399981397;10.907790312814091;10.685450933821691;10.392367206968077;10.038645467661988;9.7455617408083715;9.6849237283559013;9.4524780139547566;8.7652472061600708;7.8556770193729868;7.2290842240307729;6.9360004971771572;6.541853416236088;5.7030275773102206;4.7328193780706656;3.6817604955611456;2.3376178861980104;1.1450703079660558;-0.017158264039662668;-0.75492074887807525;-0.84587776755678368;-1.2198121776803625;-1.6240655940301778;-2.301190066416118;-3.3623552843343831;-3.8171403777279247;-3.5442693216917998;-3.8373530485454155;-3.6857580174142353;-3.6756516820054892;-3.5543756571005449;-3.8474593839541606;-4.2719254711214667;-3.6352263403705081;-3.1501222407507297;-3.0591652220720214;-3.2713982656556744;-2.968208203393313;-2.8267195076708775;-2.5336357808172618;-2.1799140415111733;-2.2001267123286645;-2.1799140415111733;-2.2203393831461549;-1.9272556562925391;-1.7453416189351223;-1.7857669605701039;-1.5432149107602149;-1.4017262150377794;-1.7857669605701039;-1.7857669605701039;-1.6543846002564138;-1.4825768983077423;-1.5331085753514693;-1.6341719294389232;-1.3208755317678162;-0.97726012787047356;-1.5128959045339787;-1.2905565255415803;-1.442151556672761
Accel Y : 0.69249915971298781;0.50886241013479427;0.66189303478328898;0.65169099314005585;0.610882826567124;0.67209507642652189;0.95775224243704526;0.63128690985358993;0.66189303478328898;0.70270120135622072;1.0189644922964429;0.71290324299945373;0.84552978436148241;0.79451957614531754;0.78431753450208452;0.71290324299945373;0.77411549285885162;1.0801767421558408;1.2128032835178695;1.4474502413122281;1.2332073668043355;1.4474502413122281;1.5086624911716258;2.0391686566197404;2.2024013229114678;2.5900789053543214;2.6206850302840201;2.4166441974193607;2.4370482807058265;2.284017656057332;2.0697747815494396;2.1105829481223717;2.324825822630264;2.1105829481223717;2.181997239625002;2.181997239625002;2.2024013229114678;2.1921992812682349;2.2636135727708662;2.3554319475599628;2.2738156144140991;2.5186646138516906;2.3044217393437982;2.5390686971381564;2.4676544056355256;2.3656339892031957;2.2534115311276333;2.0289666149765075;1.9779564067603428;1.9575523234738768;1.3658339081663642;0.73330732628591977;0.64148895149682295;0.13138686933517416;-0.51134175418850336;-0.80720096184225965;-0.52154379583173627;-1.031645877993385;-1.8886173760249549;-1.7151826680899944;-1.8478092094520231;-1.7151826680899944;-2.0722541256031488;-2.2150827086084104;-2.1742745420354788;-2.2252847502516433;-2.3375072083272057;-2.3681133332569049;-2.5211439579053998;-2.357911291613672;-2.2864970001110412;-2.847609290488855;-2.6639725409106609;-2.7863970406294571;-3.1332664564993782;-2.806801123915923;-2.7455888740565251;-2.2252847502516433;-2.4395276247595361;-2.0620520839599155;-2.000839834100518;-1.7457887930196934;-1.4193234604362381;-1.2356867108580447;-1.1132622111392489;-0.58275604569113426;-0.43992746268587252;-0.082856005172718364;0.19259911919457198;0.34562974384306661;0.54967057670772612;0.89653999257764738;0.99856040900997711;1.5392686161013247;1.835127823755081;1.8453298653983141;2.0697747815494396;2.2126033645547016;2.82472586314868;2.9777564877971745;3.0491707792998048;2.9165442379377766;2.9369483212242424;3.0491707792998048;2.9777564877971745;2.4982605305652248;2.0697747815494396;1.9269461985441778;2.2330074478411674;2.0289666149765075;1.6718951574633534;1.9779564067603428;2.284017656057332;2.2228054061979345;2.2024013229114678;1.6718951574633534;1.886138031971246;2.2738156144140991;2.0289666149765075;1.7535114906092173;1.5902788243174897;1.7331074073227515;1.5800767826742568;1.2638134917340347;1.4270461580257621;1.38623799145283;1.478056366241927;1.2434094084475684;1.3760359498095971;1.1617930753017047;1.1923992002314037;1.2332073668043355;0.86593386764794833;0.84552978436148241;0.84552978436148241;0.96795428408027817;0.93734815915057923;0.71290324299945373;0.69249915971298781;0.610882826567124;0.46805424356186237;0.8353277427182495;0.50886241013479427;0.42724607698893047;0.38643791041599856;0.48845832684832829;0.55987261835095914;0.49866036849156131;0.49866036849156131;0.62108486821035702
Accel Z : 9.5588737588484509;9.4786242515937733;9.769528715391985;9.8196846574261585;9.4986866284074427;9.7193727733578097;9.428468309559598;9.8497782226466626;9.930027729901342;9.9199965414945073;9.7795599037988197;9.7294039617646444;9.3983747443390921;9.8196846574261585;9.5287801936279468;9.7895910922056526;9.9199965414945073;9.6692168313236362;9.709341584950975;9.7996222806124891;9.6391232661031303;9.709341584950975;10.200869816885884;10.331275266174737;10.561992599531941;10.842865874923318;10.862928251736985;10.732522802448134;10.572023787938775;10.511836657497765;10.481743092277261;10.572023787938775;10.331275266174737;10.180807440072213;10.060433179190197;9.8798717878671685;9.6692168313236362;9.1977509762023963;8.7864722515221647;8.4253494688761101;8.0341331210095479;7.5526360774814751;7.1513885412080791;6.5194236715774823;6.3990494106954632;5.8673964251332142;4.9846518453317445;4.3727493525148171;4.4028429177353203;3.379661700238163;2.4367299899956838;2.0555448305359585;1.493798279753205;0.34021161296719332;-0.00084879286519277345;-0.22153493781556022;-0.010879981272027656;-0.63281366249579041;-1.2045914016853787;-0.933749314700837;-0.5224705900206067;-0.57262653205478109;-0.66290722771629518;-0.68296960452996491;-0.65287603930946014;-0.91368693788716726;-0.67293841612312999;-0.91368693788716726;-1.0942483292101952;-0.79331267700514863;-0.933749314700837;-0.97387406832817658;-0.99393644514184631;-1.0440923871760206;-1.1143107060238648;-1.0842171408033601;-1.0440923871760206;-1.0541235755828555;-1.024030010362351;-1.4152463582289112;-1.2547473437195533;-1.2848409089400579;-0.98390525673501139;-1.2748097205332229;-0.94378050310767181;-0.57262653205478109;-0.24159731462922998;0.059338337575816531;0.25996210571251421;0.37030517818769793;0.74145914924058864;1.4837670913463701;1.5138606565668746;2.2361062218589862;2.6774785117597211;3.2291938741356399;3.6906285408500441;4.2624062800396327;4.4630300481763303;5.094994917806928;5.9075211787605539;6.6498291208663352;7.2918251789037676;7.5325737006678049;7.7432286572113371;8.2046633239257414;8.1745697587052373;8.024101932602715;8.6059108601991365;8.9770648312520294;8.8566905703700094;9.0874079037272129;9.488655440000608;9.2880316718639087;8.8968153239973482;8.7664098747084971;9.4384994979664327;9.5187490052211121;9.5388113820347815;9.7895910922056526;9.5889673240689568;9.3381876138980839;9.278000483457074;9.2980628602707451;9.3883435559322574;9.5889673240689568;9.5087178168142756;9.548842570441618;9.5187490052211121;9.3381876138980839;9.4986866284074427;9.4585618747801021;9.4384994979664327;9.5087178168142756;9.4084059327459286;9.4184371211527633;9.428468309559598;9.5388113820347815;9.3983747443390921;9.8497782226466626;9.6190608892894591;9.3783123675254245;9.5187490052211121;9.7294039617646444;9.6792480197304691;9.649154454509965;9.5388113820347815;9.6190608892894591;9.5187490052211121;9.278000483457074
Gyro X : -0.070324621875229393;0.19179442329608018;0.076717769318432064;-0.10868350653444543;-0.019179442329608016;-0.19818757073928284;-0.19818757073928284;0.0063931474432026725;-0.031965737216013361;-0.083110916761634748;-0.031965737216013361;-0.10868350653444543;0.031965737216013361;0.038358884659216032;-0.15343553863686413;-0.17261498096647215;-0.27490534005771494;-0.36440940426255231;-0.38358884659216036;-0.68406677642268598;-1.0548693281284409;-1.0804419179012517;-1.0804419179012517;-1.3745267002885746;-1.521569091482236;-1.3105952258565479;-1.1443733923332784;-1.5151759440390333;-1.4640307644934121;-1.3553472579589665;-0.19179442329608018;0.14704239119366147;0.67128048153628062;1.2786294886405345;1.5982868608006682;2.1353112460296928;2.2439947525641379;2.1480975409160981;2.3526782590985835;2.8321643173387838;2.9919930034188509;3.4906585039886591;3.3372229653517951;3.6313077477391178;4.2450499022865742;4.6861770758675592;4.4752032102418706;4.8651852042772337;5.5236793909271089;5.657935487234365;5.843336763087243;6.2397119045658087;6.8342746167836568;6.9621375656477102;6.8790266488860752;7.1986840210462093;7.4352304764447084;7.3712990020126812;7.3265469699102628;7.6717769318432065;7.5886660150815723;7.6270248997407881;8.0873315156513801;7.9466822719009222;7.79963988070726;7.6206317522975855;7.1475388415005874;6.9941033028637234;7.2370429057054251;6.9749238605341155;6.9173855335452918;6.9109923861020892;6.9365649758748997;6.847060911670062;7.0132827451933313;7.409657886671897;7.6206317522975855;7.5503071304223566;8.1256904003105959;8.0234000412193538;8.1065109579809889;8.2663396440610555;8.2279807594018397;8.1768355798562187;8.1192972528673941;7.9978274514465433;7.8507850602528819;7.7676741434912469;7.6589906369568013;7.6973495216160179;7.6845632267296127;7.4160510341150996;7.2754017903646409;7.0900005145117637;6.8662403539996699;6.6808390781467928;6.642480193487577;6.4954378022939148;6.0607037761561333;5.4853205062678931;5.0889453647893275;4.9035440889364494;4.6542113386515451;4.1235801008657234;3.509837946318267;2.8449506122251891;1.9946620022792338;1.2402706039813185;0.50505864801301115;0.038358884659216032;-0.019179442329608016;-0.25572589772810689;-0.51145179545621378;-0.93979267415079282;-1.6110731556870734;-1.8987647906311937;-1.7261498096647216;-1.911551085517599;-1.8156538738695589;-1.8092607264263563;-1.7325429571079243;-1.9179442329608016;-2.1864564255753138;-1.7836881366535455;-1.4768170593798173;-1.4192787323909932;-1.5535348286982493;-1.3617404054021691;-1.2722363411973319;-1.0868350653444543;-0.86307490483236082;-0.87586119971876608;-0.86307490483236082;-0.88864749460517145;-0.70324621875229398;-0.58816956477464588;-0.61374215454745651;-0.46030661591059241;-0.37080255170575499;-0.61374215454745651;-0.61374215454745651;-0.53063123778582177;-0.42194773125137636;-0.45391346846738972;-0.51784494289941652;-0.31965737216013362;-0.10229035909124276;-0.44112717358098441;-0.30047792983052563;-0.39637514147856567
Gyro Y : 1.6302525980166815;1.5151759440390333;1.6110731556870734;1.6046800082438708;1.5791074184710601;1.6174663031302761;1.796474431539951;1.5918937133574655;1.6110731556870734;1.6366457454598842;1.834833316199167;1.6430388929030868;1.7261498096647216;1.6941840724487083;1.6877909250055054;1.6430388929030868;1.6813977775623028;1.873192200858383;1.9563031176200179;2.1033455088136792;1.9690894125064231;2.1033455088136792;2.1417043934728954;2.4741480605194344;2.5764384196106769;2.8193780224523786;2.8385574647819865;2.710694515917933;2.7234808108043382;2.6275835991562984;2.4933275028490423;2.5189000926218528;2.6531561889291089;2.5189000926218528;2.5636521247242716;2.5636521247242716;2.5764384196106769;2.5700452721674742;2.6147973042698931;2.6723356312587172;2.6211904517130957;2.7746259903499597;2.6403698940427036;2.787412285236365;2.7426602531339466;2.6787287787019198;2.6084041568266905;2.4677549130762317;2.4357891758602181;2.4230028809738129;2.0522003292680577;1.6558251877894921;1.5982868608006682;1.2786294886405345;0.87586119971876608;0.69045992386588861;0.86946805227556345;0.54981068011542988;0.012786294886405345;0.12146980142085077;0.038358884659216032;0.12146980142085077;-0.10229035909124276;-0.19179442329608018;-0.1662218335232695;-0.19818757073928284;-0.26851219261451226;-0.28769163494412026;-0.38358884659216036;-0.28129848750091757;-0.23654645539849889;-0.58816956477464588;-0.47309291079699778;-0.54981068011542988;-0.76717769318432072;-0.56259697500183514;-0.52423809034261915;-0.19818757073928284;-0.33244366704653899;-0.09589721164804009;-0.057538326988824051;0.10229035909124276;0.30687107727372825;0.42194773125137636;0.49866550056980846;0.83110916761634746;0.92061323182118482;1.1443733923332784;1.3169883732997505;1.4128855849477906;1.5407485338118441;1.758115546880735;1.8220470213127617;2.1608838358025033;2.3462851116553809;2.3526782590985835;2.4933275028490423;2.5828315670538795;2.9664204136460399;3.0623176252940802;3.1070696573964987;3.023958740634864;3.0367450355212693;3.1070696573964987;3.0623176252940802;2.7618396954635545;2.4933275028490423;2.403823438644205;2.5956178619402852;2.4677549130762317;2.2439947525641379;2.4357891758602181;2.6275835991562984;2.5892247144970821;2.5764384196106769;2.2439947525641379;2.378250848871394;2.6211904517130957;2.4677549130762317;2.2951399321097594;2.1928495730185165;2.2823536372233542;2.1864564255753138;1.9882688548360312;2.090559213927274;2.064986624154463;2.1225249511432871;1.9754825599496257;2.0585934767112604;1.9243373804040045;1.9435168227336124;1.9690894125064231;1.7389361045511269;1.7261498096647216;1.7261498096647216;1.8028675789831536;1.7836881366535455;1.6430388929030868;1.6302525980166815;1.5791074184710601;1.4896033542662226;1.7197566622215188;1.5151759440390333;1.4640307644934121;1.4384581747206013;1.5023896491526281;1.5471416812550467;1.5087827965958307;1.5087827965958307;1.5855005659142627
Gyro Z : 5.3063123778582177;5.2551671983125967;5.4405684741654738;5.4725342113814879;5.267953493199002;5.4086027369494607;5.2232014610965836;5.4917136537110958;5.5428588332567168;5.5364656858135142;5.4469616216086765;5.4149958843926633;5.2040220187669757;5.4725342113814879;5.2871329355286099;5.45335476905188;5.5364656858135142;5.3766369997334476;5.4022095895062581;5.4597479164950826;5.3574575574038397;5.4022095895062581;5.7154738142231896;5.7985847309848237;5.9456271221784851;6.1246352505881605;6.1374215454745658;6.0543106287129307;5.9520202696216877;5.913661384962472;5.8944819426328641;5.9520202696216877;5.7985847309848237;5.7026875193367834;5.6259697500183519;5.5108930960407037;5.3766369997334476;5.0761590699029222;4.8140400247316126;4.5838867167763162;4.3345539664914119;4.0276828892176839;3.7719569914895765;3.3691887025678082;3.2924709332493762;2.9536341187596347;2.3910371437577993;2.0010551497224363;2.0202345920520446;1.368133552845372;0.76717769318432072;0.52423809034261915;0.1662218335232695;-0.56899012244503788;-0.78635713551392872;-0.92700637926438745;-0.79275028295713135;-1.189125424435697;-1.5535348286982493;-1.3809198477317772;-1.1188008025604677;-1.150766539776481;-1.2083048667653051;-1.2210911616517104;-1.2019117193221025;-1.368133552845372;-1.2146980142085078;-1.368133552845372;-1.48321020682302;-1.2914157835269398;-1.3809198477317772;-1.406492437504588;-1.4192787323909932;-1.4512444696070066;-1.4959965017094254;-1.4768170593798173;-1.4512444696070066;-1.4576376170502092;-1.4384581747206013;-1.6877909250055054;-1.5855005659142627;-1.6046800082438708;-1.4128855849477906;-1.5982868608006682;-1.3873129951749799;-1.150766539776481;-0.93979267415079282;-0.74799825085471272;-0.62013530199065925;-0.54981068011542988;-0.31326422471693094;0.15982868608006681;0.17900812840967484;0.63931474432026725;0.92061323182118482;1.2722363411973319;1.5663211235846548;1.9307305278472071;2.0585934767112604;2.4613617656330287;2.9792067085324452;3.4522996193294433;3.8614610556944142;4.0148965943312787;4.1491526906385348;4.4432374730258575;4.4240580306962496;4.3281608190482093;4.6989633707539644;4.9355098261524635;4.858792056834031;5.0058344480276924;5.2615603457557993;5.1336973968917459;4.8843646466068416;4.8012537298452074;5.2295946085397862;5.2807397880854072;5.2935260829718125;5.45335476905188;5.3254918201878265;5.165663134107759;5.1273042494485432;5.1400905443349485;5.197628871323773;5.3254918201878265;5.2743466406422046;5.2999192304150151;5.2807397880854072;5.165663134107759;5.267953493199002;5.2423809034261915;5.2295946085397862;5.2743466406422046;5.2104151662101783;5.2168083136533809;5.2232014610965836;5.2935260829718125;5.2040220187669757;5.4917136537110958;5.3446712625174344;5.1912357238805704;5.2807397880854072;5.4149958843926633;5.3830301471766502;5.3638507048470423;5.2935260829718125;5.3446712625174344;5.2807397880854072;5.1273042494485432
COMMAND 2 SAMPLE 2
Accel X : -1.3714072088115434;-1.1692805006366358;-1.4724705628989971;-1.2602375193153441;-0.94694112164423749;-1.4825768983077423;-1.4724705628989971;-1.3410882025853073;-1.0682171465491819;-1.2804501901328349;-1.442151556672761;-1.4320452212640156;-1.411832550446525;-1.4926832337164879;-1.4825768983077423;-1.8666176438400668;-1.5331085753514693;-1.3410882025853073;-1.4724705628989971;-1.5230022399427239;-1.6745972710739048;-1.4724705628989971;-1.5432149107602149;-1.6644909356651594;-1.3714072088115434;-1.3815135442202888;-1.4825768983077423;-1.6745972710739048;-1.5634275815777054;-1.6240655940301778;-1.5230022399427239;-1.7958732959788493;-1.4219388858552702;-1.9474683271100297;-2.0485316811974839;-2.5437421162260074;-3.0490588866632762;-2.8974638555320955;-1.9777873333362659;-1.411832550446525;-1.5027895691252333;-1.3107691963590711;-1.6948099418913953;-1.3309818671765619;-0.13843428894460719;0.63975353752878683;0.92273092897365749;1.5594300597246165;2.2264481967018113;2.7721903087740616;3.3078260854375667;3.3482514270725483;4.1062265827284516;4.2679279492683779;4.096120247319706;4.2173962722246507;5.4806881983178224;6.1881316769299994;6.7237674535935046;7.1583398761695554;7.4615299384319167;8.1487607462266034;9.0785436038311769;9.3716273306847935;8.7046091937075971;8.7450345353425813;9.1695006225098847;10.260984846654388;9.9780074552095162;9.5131160264072285;9.553541368042211;9.8870504365308065;10.028539132253243;10.109389815523205;9.8466250948958258;9.7455617408083715;9.5434350326334645;9.4019463369110294;9.6546047221296636;9.8365187594870811;9.7758807470346074;9.4929033555897373;9.6647110575384083;9.4929033555897373;9.3008829828235751;9.7657744116258627;9.927475778165789;9.7960934178521004;9.7758807470346074;9.8365187594870811;9.6343920513121724;9.9982201260270056;9.8061997532608451;9.7354554053996267;9.927475778165789;10.018432796844499;10.453005219420548;10.301410188289369;10.382260871559332;10.341835529924349;10.624812921369221;10.73598261086542;10.614706585960475;10.675344598412947;10.513643231873022;10.634919256777966;10.685450933821691;10.372154536150587;10.180134163384423;9.9375821135745355;10.220559505019406;10.594493915142984;10.089177144705715;9.3109893182323198;9.3312019890498128;9.4423716785460119;9.2099259641448672;8.3306747835840191;8.3913127960364928;7.6636566466068246;7.3806792551619544;7.0875955283083378;6.6530231057322862;5.8748352792588925;4.5711180115307393;3.6312288185174189;2.6711269546866081;2.1354911780231025;1.6200680721770886;0.40730782312764319;-1.0176854695054551;-2.4628914329560443;-2.9581018679845679;-2.6852308119484425;-2.9176765263495859;-3.0894842282982573;-3.6251200049617625;-3.4330996321956007;-2.9479955325758223;-2.8772511847146047;-3.1299095699332393;-2.6751244765396969;-2.5134231099997706;-2.3921470850948263;-2.1799140415111733;-2.2809773955986277;-1.896936650066303;-1.6139592586214322;-1.7453416189351223;-1.8868303146575576
Accel Y : 0.78431753450208452;0.92714611750734621;0.99856040900997711;0.84552978436148241;0.78431753450208452;0.84552978436148241;0.8353277427182495;1.2842175750205005;0.89653999257764738;0.87613590929118146;1.1515910336584718;0.84552978436148241;0.81492365943178358;0.94755020079381225;0.96795428408027817;0.96795428408027817;0.82512570107501648;0.98835836736674409;0.80472161778855056;0.87613590929118146;0.86593386764794833;0.80472161778855056;0.97815632572351119;0.81492365943178358;0.95775224243704526;0.89653999257764738;0.92714611750734621;0.89653999257764738;0.78431753450208452;1.1107828670855397;0.88633795093441436;1.1107828670855397;1.2536114500908013;1.3964400330960631;1.2230053251611026;1.4168441163825292;1.4474502413122281;1.6004808659607228;1.6412890325336547;1.3250257415934323;1.3964400330960631;1.478056366241927;1.3454298248798982;1.4678543245986939;1.1515910336584718;1.4984604495283929;1.5698747410310239;1.1923992002314037;1.1515910336584718;1.1719951169449376;1.2944196166637334;1.2230053251611026;1.0291665339396761;1.4474502413122281;1.1515910336584718;0.26401341069720285;0.0089623696163784287;0.070174619475776273;0.22320524412427092;-0.021643755313320502;-0.42972542104263955;-0.20528050489151409;-0.18487642160504814;-0.56235196240466823;-0.62356421226406611;-0.45012950432910553;-0.36851317118324167;-0.61336217062083309;-0.78679687855579361;-1.2560907941445105;-1.6233642933008978;-1.6233642933008978;-1.6641724598738297;-2.1028602505328475;-2.5313459995486327;-2.5415480411918656;-2.4293255831163032;-2.7251847907700593;-2.653770499267428;-2.6231643743377293;-3.1638725814290769;-3.55155016387193;-3.500539955655765;-3.6841767052339587;-3.694378746877192;-3.7555909967365895;-3.7249848718068908;-3.8984195797418515;-3.8474093715256861;-3.7861971216662886;-3.7759950800230557;-4.0718542876768122;-3.9290257046715502;-3.5413481222286971;-3.65357058030426;-3.8882175380986186;-3.7045807885204249;-3.4903379140125321;-3.4291256641531342;-3.55155016387193;-3.1434684981426111;-2.7863970406294571;-2.6741745825538938;-2.449729666402769;-2.357911291613672;-1.8682132927384891;-1.7151826680899944;-1.6233642933008978;-1.2152826275715787;-0.97043362813398726;-0.86841321170165753;-0.85821117005842462;0.26401341069720285;0.049770536189310328;0.21300320248103796;0.67209507642652189;1.00876245065321;0.81492365943178358;1.1923992002314037;1.2638134917340347;1.0699747005126079;1.4372481996689952;1.6820971991065863;2.1615931563385362;2.3656339892031957;1.2944196166637334;0.88633795093441436;1.6106829076039557;1.7535114906092173;2.0391686566197404;1.9167441569009449;2.0901788648359054;1.7025012823930525;1.6718951574633534;2.1513911146953033;1.7229053656795184;1.5392686161013247;1.2332073668043355;1.3250257415934323;0.98835836736674409;0.67209507642652189;0.63128690985358993;0.82512570107501648;0.72310528464268664;0.6006807849238911;0.47825628520509533;0.5292664934212602;0.33542770219983364;0.55987261835095914;0.79451957614531754
Accel Z : 9.488655440000608;9.5588737588484509;9.3783123675254245;9.5187490052211121;9.4585618747801021;9.4084059327459286;9.057314338506707;9.0773767153203764;9.2579381066434046;9.278000483457074;8.9670336428451929;9.1475950341682211;9.0372519616930376;9.1475950341682211;9.2880316718639087;9.3181252370844145;9.0974390921340476;9.3482188023049186;9.4786242515937733;9.1375638457613864;9.2378757298297351;9.4786242515937733;9.4685930631869368;9.368281179118588;9.4986866284074427;9.4986866284074427;9.4585618747801021;9.6692168313236362;9.7594975269851485;9.548842570441618;9.5588737588484509;9.4485306863732674;9.6391232661031303;9.7996222806124891;9.5689049472552856;9.8798717878671685;10.421555961836251;10.321244077767902;10.652273295193453;10.802741121295977;10.602117353159279;10.361368831395241;10.351337642988407;10.411524773429417;10.000246048749187;10.180807440072213;9.9601212951218461;9.5187490052211121;9.649154454509965;9.3582499907117533;9.3181252370844145;8.7463474978948259;8.7563786863016606;8.5958796717923036;7.9237900485343653;7.09120141076707;6.810328135375693;6.7300786281210145;6.2285192077792706;5.4862112656734885;4.6837161931266973;4.8141216424155511;3.8711899321730727;3.4398488306791721;2.8680710914895839;2.4166676131820144;1.9050770044334353;1.2630809463960024;0.60102251154490016;-0.15131661896771603;-0.65287603930946014;-0.45225227117276257;-0.55256415524111135;-1.3349968509742325;-1.4954958654835904;-1.7061508220271231;-1.6058389379587741;-1.6058389379587741;-1.3249656625673973;-1.5657141843314346;-1.3951839814152416;-1.4854646770767554;-1.2647785321263882;-1.7262131988407927;-1.9569305321979953;-1.96696172060483;-2.4283963873192342;-2.4083340105055648;-2.5287082713875835;-2.2378038075893718;-2.639051343862767;-2.6892072858969418;-2.7995503583721253;-2.7393632279311158;-3.0603612569498324;-3.1105171989840068;-3.3211721555275391;-2.9399869960678138;-3.2910785903070345;-4.0032929671923112;-3.6622325613599251;-3.0603612569498324;-3.2409226482728601;-3.1105171989840068;-2.5086458945739136;-2.0371800394526742;-1.4854646770767554;-1.2547473437195533;-0.65287603930946014;-0.10116067693354161;0.21983735208517466;1.0724883666661398;1.9452017580607748;1.8950458160266002;2.1157319609769676;3.7207221060705491;4.4128741061421559;4.4429676713626609;5.7971781062853696;5.847334048319544;5.7670845410648655;6.6999850629005095;7.2316380484627585;8.0943202514505579;8.5958796717923036;7.7231662803976677;7.6429167731429892;8.6360044254196424;9.1776885993887252;9.0974390921340476;9.5588737588484509;8.9068465124041847;8.9770648312520294;9.5689049472552856;9.5388113820347815;9.3883435559322574;9.4184371211527633;9.2479069182365699;9.5388113820347815;9.2880316718639087;9.488655440000608;9.428468309559598;9.5087178168142756;9.2980628602707451;9.2880316718639087;9.5087178168142756;9.2880316718639087;9.3381876138980839;9.428468309559598;9.6792480197304691
Gyro X : -0.35162310937614699;-0.22376016051209355;-0.41555458380817373;-0.28129848750091757;-0.083110916761634748;-0.42194773125137636;-0.41555458380817373;-0.33244366704653899;-0.15982868608006681;-0.29408478238732294;-0.39637514147856567;-0.38998199403536304;-0.37719569914895767;-0.42834087869457904;-0.42194773125137636;-0.66488733409307799;-0.45391346846738972;-0.33244366704653899;-0.41555458380817373;-0.4475203210241871;-0.54341753267222714;-0.41555458380817373;-0.46030661591059241;-0.53702438522902451;-0.35162310937614699;-0.35801625681934968;-0.42194773125137636;-0.54341753267222714;-0.47309291079699778;-0.51145179545621378;-0.4475203210241871;-0.62013530199065925;-0.38358884659216036;-0.71603251363869935;-0.77996398807072609;-1.0932282127876569;-1.4128855849477906;-1.3169883732997505;-0.73521195596830735;-0.37719569914895767;-0.43473402613778173;-0.31326422471693094;-0.55620382755863251;-0.32605051960333631;0.42834087869457904;0.92061323182118482;1.0996213602308598;1.5023896491526281;1.9243373804040045;2.2695673423369489;2.6084041568266905;2.633976746599501;3.1134628048397013;3.2157531639309442;3.1070696573964987;3.1837874267149311;3.9829308571152651;4.4304511781394522;4.7692879926291933;5.0441933326869082;5.2359877559829888;5.6707217821207703;6.2588913468954166;6.4442926227482937;6.0223448914969175;6.0479174812697281;6.3164296738842403;7.0068895977501287;6.8278814693404541;6.5337966869531314;6.5593692767259419;6.7703431423516305;6.8598472065564673;6.9109923861020892;6.7447705525788191;6.6808390781467928;6.5529761292827393;6.4634720650779016;6.6233007511579682;6.7383774051356164;6.7000185204764007;6.5210103920667262;6.6296938986011718;6.5210103920667262;6.3995405906458753;6.693625373033198;6.795915732124441;6.7128048153628059;6.7000185204764007;6.7383774051356164;6.610514456271563;6.8406677642268594;6.7191979628060086;6.6744459307035902;6.795915732124441;6.8534540591132647;7.1283593991709795;7.0324621875229401;7.0836073670685611;7.0580347772957506;7.2370429057054251;7.3073675275806549;7.2306497582622224;7.2690086429214382;7.1667182838301962;7.2434360531486277;7.2754017903646409;7.0772142196253585;6.9557444182045076;6.8023088795676436;6.9813170079773181;7.2178634633758172;6.898206091215684;6.405933738089078;6.4187200329754832;6.4890446548507121;6.3420022636570508;5.7857984360984185;5.8241573207576343;5.3638507048470423;5.1848425764373669;4.9994413005844898;4.7245359605267749;4.2322636074001689;3.4075475872270244;2.8129848750091759;2.2056358679049222;1.8667990534151804;1.5407485338118441;0.77357084062752335;-0.12786294886405344;-1.0420830332420357;-1.3553472579589665;-1.1827322769924944;-1.329774668186156;-1.4384581747206013;-1.7772949892103429;-1.6558251877894921;-1.3489541105157639;-1.3042020784133452;-1.4640307644934121;-1.1763391295492918;-1.074048770458049;-0.99733100113961692;-0.86307490483236082;-0.92700637926438745;-0.68406677642268598;-0.50505864801301115;-0.58816956477464588;-0.67767362897948324
